,Seq,Time,ACCx,ACCy,ACCz,ADGx,ADGy,ADGz,Keydown
0,1,1580729631273,0.55509996,0.47759998,-1.3247,0.24943751,-0.37463509999999994,8.230988,-1
1,2,1580729631283,0.7594,0.26549998,-1.6349,1.9076425,2.2277377,9.286667999999999,-1
2,3,1580729631294,-0.0157,-0.018299998999999997,-0.076799996,1.4975158000000002,2.0797663,10.027569,-1
3,4,1580729631304,-0.4289,-0.1692,0.6695,0.55373096,2.034698,10.551927000000001,-1
4,5,1580729631314,-2.4292998,-0.23089999,1.3385999,-0.5983109999999999,2.0038223000000004,10.719809,-1
5,6,1580729631324,-2.9705,-0.1024,0.9902,-1.223552,2.0909328,10.317879,-1
6,7,1580729631334,-2.8007998,-0.51559997,0.53249997,-1.0971764,1.6658473000000003,9.811428999999999,-1
7,8,1580729631344,-2.8007998,-0.51559997,0.53249997,-0.98593223,1.4958493999999998,9.379477,-1
8,9,1580729631354,-1.9602,-0.85279995,-0.8749,-0.6417418,1.3580774,8.607213,-1
9,10,1580729631365,-0.5117,-0.4596,-1.4448999,-0.04215710599999999,1.5619676000000002,8.14449,-1
10,11,1580729631375,0.0321,-0.16679999,-1.4567,0.51917785,1.8575078,8.134644999999999,-1
11,12,1580729631385,0.3188,0.1393,-0.7945,0.8047199,2.1970727,9.001126,-1
12,13,1580729631395,0.1944,0.3787,0.1325,0.6419045999999999,2.3630004000000002,9.895964,-1
13,14,1580729631406,-0.1282,0.3556,0.82839996,0.37541083,2.3180563,10.429592999999999,-1
14,15,1580729631416,-0.36249998,0.0815,1.0418,0.16304514,2.1308875,10.62722,-1
15,16,1580729631426,-0.36249998,0.0815,1.0418,-0.12445061,1.8429893,10.535273,-1
16,17,1580729631436,-0.9151,-0.6347,0.6782,-0.33137667,1.3009803999999998,10.041837,-1
17,18,1580729631447,-0.797,-0.8692,0.0189,-0.11919294,1.0424738000000002,9.42579,-1
18,19,1580729631456,-0.30359998,-1.008,-0.2863,0.22299594,0.97130847,9.310141,-1
19,20,1580729631466,0.47309998,-0.7216,-0.21679999,1.1888074,1.2310985,9.4251585,-1
20,21,1580729631476,1.4387,-0.2746,-0.049599998,2.4447482000000003,1.7179067,9.686385000000001,-1
21,22,1580729631486,2.4612,0.1796,0.23259999,3.3075417999999996,2.0490727,9.957025999999999,-1
22,23,1580729631496,3.306,0.6181,0.6534,4.3112106,2.5499107999999997,10.414413,-1
23,24,1580729631507,4.0798,0.9521,0.8699,5.0531545,2.7931812000000003,10.483500999999999,-1
24,25,1580729631518,4.5881,1.1173999,0.6976,5.848029,2.6804907000000004,10.044758999999999,-1
25,26,1580729631528,5.1854,0.7499,0.1964,6.555602,2.1282058,9.708210000000001,-1
26,27,1580729631540,5.8778996,0.1892,0.15079999,7.279101,1.8534568999999999,9.818525,-1
27,28,1580729631550,6.6338,0.14729999,0.3733,8.163835,2.1968715,10.028727,-1
28,29,1580729631560,6.9744997,0.5356,0.4707,8.578989,2.611231,10.059123,-1
29,30,1580729631571,7.4276,0.9697,0.5125,9.402328,2.8444076000000003,10.096885,-1
30,31,1580729631581,8.2914,0.9892,0.6304,10.498642,2.6915709999999997,10.325924,-1
31,32,1580729631591,9.007999,0.84389997,0.8867,10.997937,2.5523818,10.571817999999999,-1
32,33,1580729631601,9.6373,0.5708,1.4877,11.657214999999999,2.1729581000000002,11.6081915,-1
33,34,1580729631611,9.7557,0.3118,2.3071,11.496162,2.1715696,12.262948,-1
34,35,1580729631621,9.445,0.2844,2.8753,11.376911,2.076807,12.204041499999999,-1
35,36,1580729631631,9.1775,0.1671,2.5069999999999997,11.072359,2.0738766,10.990803,-1
36,37,1580729631642,8.8179,0.0679,1.3981,11.000591,1.9834621,10.34206,-1
37,38,1580729631652,8.7265,-0.18169999,0.5579,11.238182,1.5563938999999998,9.473444,-1
38,39,1580729631662,8.840899,-0.6623,0.1524,11.067169,1.0684078000000001,9.414728,-1
39,40,1580729631672,8.5524,-1.1722,0.1881,10.132319,0.46708003,9.671636999999999,-1
40,41,1580729631682,7.1849,-2.0019999,0.54289997,8.059036,-0.70915294,9.533932,-1
41,42,1580729631692,5.4319997,-3.1055,0.38149998,6.485260500000001,-1.7658770000000001,9.248849,-1
42,43,1580729631703,3.8313,-4.2426,0.12969999,4.6324453000000005,-2.358643,8.918507,-1
43,44,1580729631713,0.1383,-5.4567,-0.2223,2.8968403,-2.7646232000000004,8.803374,-1
44,45,1580729631724,-1.2322,-5.8666,-0.3759,1.5969516000000001,-3.0478857,8.587053,-1
45,46,1580729631734,-2.7143998,-6.3757,-0.7211,0.19395906,-3.4374222999999997,8.177722,-1
46,47,1580729631744,-4.3013,-6.8234,-1.1211,-1.3449285,-3.770226,7.7187147,-1
47,48,1580729631755,-4.3013,-6.8234,-1.1211,-2.5716982,-4.069865,7.2993274,-1
48,49,1580729631765,-6.7251,-7.2107,-1.4224,-3.7139910000000005,-4.0075392999999995,7.336236500000001,-1
49,50,1580729631775,-8.0927,-6.8107,-0.84749997,-5.361326,-3.4962814,8.097114,-1
50,51,1580729631786,-9.2794,-6.3336997,0.0242,-6.542137,-2.9367182,8.926934,-1
51,52,1580729631796,-9.9242,-5.678,0.24139999,-7.2301826,-2.159503,8.887286,-1
52,53,1580729631806,-10.2346,-5.3936996,-0.113,-7.6432114,-2.116072,8.593919999999999,-1
53,54,1580729631816,-10.965899,-5.785599700000001,-0.1661,-8.798174000000001,-2.5900090000000002,8.673034,-1
54,55,1580729631826,-12.644299499999999,-6.4644,-0.022699999,-10.835783000000001,-3.2854002,8.744908,-1
55,56,1580729631836,-14.879000000000001,-7.1963,-0.2013,-12.750063,-3.7763648,8.47307,-1
56,57,1580729631846,-17.0105,-7.8015,-0.723,-15.183348,-4.494271,7.860930000000001,-1
57,58,1580729631857,-18.3944,-8.4438,-1.1926,-16.470823,-4.9711003,7.396139,-1
58,59,1580729631867,-19.3072,-8.6608,-1.8722,-17.23176,-4.9769807,6.595308,-1
59,60,1580729631877,-19.463998999999998,-8.4534,-2.7180998,-17.173368,-4.654884,5.8640894999999995,-1
60,61,1580729631887,-18.6569,-7.9722995999999995,-3.4675998999999997,-15.993727,-4.0884824,5.10733,-1
61,62,1580729631898,-16.9555,-7.2949,-4.2186,-14.594498000000002,-3.5323093,4.57147,-1
62,63,1580729631908,-15.2373,-6.3869996,-4.5406,-13.296947,-2.79683,4.377989299999999,-1
63,64,1580729631918,-13.917399,-5.826699700000001,-4.396,-11.658201,-2.3430902999999996,4.652547,-1
64,65,1580729631929,-13.3888,-5.852999700000001,-4.3735,-11.484162,-2.4146577999999996,4.4930067000000005,-1
65,66,1580729631939,-13.1767,-5.9133,-4.8241,-11.320217,-2.7859602000000003,3.9515437999999996,-1
66,67,1580729631949,-12.915899000000001,-6.3345,-5.2742,-11.106136,-3.2384834,3.480288,-1
67,68,1580729631959,-12.672999,-6.5891,-5.9473,-10.887249,-3.438428,2.4871060000000003,-1
68,69,1580729631970,-12.2715,-6.6597,-7.1565,-10.206874000000001,-3.5226464,1.1657271,-1
69,70,1580729631980,-11.349899,-6.7693,-8.588799,-9.055503,-3.8152177000000003,-0.33419225,-1
70,71,1580729631990,-10.0281,-6.9445,-10.097899,-7.5924062999999995,-3.899283,-1.7447409999999999,-1
71,72,1580729632003,-8.5166,-6.8560996,-11.371099000000001,-6.1150400000000005,-4.015507,-2.6175041,-1
72,73,1580729632013,-7.638999999999999,-6.904,-11.853,-5.609844,-4.673433999999999,-2.1397076,-1
73,74,1580729632023,-7.139199700000001,-7.4139,-11.4127,-4.4288516,-5.074769,-0.72958034,-1
74,75,1580729632033,-5.9687,-7.6306996,-10.0623,-3.0998402,-5.0375247000000005,1.1678916000000001,-1
75,76,1580729632043,-3.7382,-6.4224,-7.3901,-2.2521012000000002,-4.361143599999999,2.0947447,-1
76,77,1580729632054,-3.1418998,-5.4932,-7.4869,-1.729782,-3.7163373999999996,2.064702,-1
77,78,1580729632064,-2.8432999,-5.8464,-7.1317,-1.4775097,-4.353415,2.4795406000000004,-1
78,79,1580729632074,-3.3595998,-6.6108,-5.3093,-2.1017835,-5.5540785999999995,4.8171816,-1
79,80,1580729632085,-3.3595998,-6.6108,-5.3093,-1.9353672999999998,-6.1645712999999995,6.5591550000000005,-1
80,81,1580729632095,-1.9966999,-7.8227997,-1.5416,-0.5716396,-7.218632700000001,8.145132,-1
81,82,1580729632105,-1.9966999,-7.8227997,-1.5416,1.6870216,-7.4852896,9.437704,-1
82,83,1580729632115,2.5446,-6.8671,0.8964,4.194967,-6.8984613,10.909888,-1
83,84,1580729632125,3.4552998999999995,-6.2346,2.697,4.6347246,-6.733003,12.908567999999999,-1
84,85,1580729632136,2.9696999,-6.0206,5.0337996,4.0756497000000005,-6.900434,14.749077,-1
85,86,1580729632146,2.2096999,-6.1345,6.7692,3.0311167,-7.574142999999999,16.976097,-1
86,87,1580729632156,2.1652,-6.0989,8.0082,3.1907334,-7.693355599999999,17.849155,-1
87,88,1580729632167,3.3999,-5.5234,8.7268,5.0149717,-7.318471000000001,18.290714,-1
88,89,1580729632177,5.3933,-4.852999700000001,8.3419,6.7837119999999995,-6.946403,17.442928,-1
89,90,1580729632187,6.8543997,-4.183399700000001,7.4881997,7.7388163,-6.499472,16.930714000000002,-1
90,91,1580729632197,7.808799700000001,-3.0223,8.3368,8.75663,-5.44272,18.737913,-1
91,92,1580729632207,8.4506,-2.0356998,11.4332,9.0130205,-4.7249475,22.216429,-1
92,93,1580729632217,8.2939,-1.1054,14.7547,8.709636999999999,-4.251825,24.402517,-1
93,94,1580729632227,7.7309,-0.5751,15.6023,7.866714999999999,-4.0877643,24.291847,-1
94,95,1580729632237,7.0374,-0.5543,13.828,7.110587599999999,-4.353425,21.808334,-1
95,96,1580729632247,6.4821,-0.7413,10.9879,6.5664716,-4.6854625,18.926586,-1
96,97,1580729632257,6.138999999999999,-0.8904,8.3986,6.1651172999999995,-4.8535542000000005,16.532316,-1
97,98,1580729632268,5.7819,-0.92399997,6.6355996,5.777793,-4.889859700000001,15.442848999999999,-1
98,99,1580729632278,5.7819,-0.92399997,6.6355996,5.322818,-4.6360269999999995,15.476992000000001,-1
99,100,1580729632288,5.1226,0.114999995,8.0834,5.154017,-3.7570580000000002,17.599957999999997,-1
100,101,1580729632299,5.1671,0.78669995,9.1813,5.1670127,-3.277892,18.074299,-1
101,102,1580729632310,5.2299,1.2679,8.9353,5.1791945,-2.9900515,17.133806,-1
102,103,1580729632320,5.2605,1.4533,7.9598,5.020861,-3.0748827000000003,16.165909,-1
103,104,1580729632331,5.1042,1.3409,7.1457,4.646619,-3.3670998,15.517586999999999,-1
104,105,1580729632341,4.6748,1.1029999,6.6369996,3.8841803,-3.555332,14.879292999999999,-1
105,106,1580729632351,3.9950997999999998,1.0188,6.0572,3.3190817999999997,-3.6333542000000003,14.205948000000001,-1
106,107,1580729632361,3.3901,0.9097,5.0811996,2.6927586,-3.7887475,12.715997999999999,-1
107,108,1580729632372,2.8374999,0.8102,3.7803998,2.4836874,-3.7679946,12.219364,-1
108,109,1580729632381,2.4266,0.94009995,2.7605999,2.1543312,-3.4565281999999997,11.172609,-1
109,110,1580729632392,2.3934,1.1769,2.4910997999999998,2.3876512,-3.1498022,11.509588,-1
110,111,1580729632401,2.6978998,1.4605,2.9371998,2.6780102,-3.0646932000000002,12.011796,-1
111,112,1580729632411,3.0152,1.5703,3.5667,2.709355,-3.0038419999999997,12.539363,d
112,113,1580729632421,2.9169998,1.6308999,3.9218998,2.4619287999999995,-3.104935,12.56184,-1
113,114,1580729632431,2.6964,1.4533,3.8583998999999998,2.1871417,-3.5480343999999997,12.018299,-1
114,115,1580729632442,2.3899999,0.97859997,3.1841,1.6559448,-3.8191252,11.201857,-1
115,116,1580729632453,1.7907,0.7367,2.4092999,1.1582956,-3.9237328000000002,10.832077,-1
116,117,1580729632463,1.2758,0.58989996,2.0983999,0.60668117,-3.9597225,10.584085,-1
117,118,1580729632473,0.7881,0.5168,1.8542,0.48354253,-3.8993597,10.210275,-1
118,119,1580729632484,0.6335,0.5222,1.4538,0.57770175,-3.7283180000000002,9.8012295,-1
119,120,1580729632495,0.9191,0.71,0.75799996,0.8280586,-3.6471449999999996,9.58896,-1
120,121,1580729632505,1.0073,0.5639,1.0041,0.89996123,-3.7320432999999995,9.836357000000001,-1
121,122,1580729632516,1.0073,0.5639,1.0041,0.5222424,-3.7323593999999995,10.373933000000001,-1
122,123,1580729632526,0.6123,0.48889998,2.2080998,0.56978166,-3.7540507000000005,11.204930000000001,-1
123,124,1580729632536,0.8293,0.4041,2.5930998,0.7113461,-3.8108508999999997,11.473550999999999,-1
124,125,1580729632547,0.6482,0.27109998,2.425,0.4177116,-3.9379160000000004,11.1681185,-1
125,126,1580729632557,0.3211,0.0016999998999999999,2.0275,0.13404657,-4.229989,10.85125,-1
126,127,1580729632567,0.3211,0.0016999998999999999,2.0275,-0.04361278,-4.4222054,10.664750999999999,-1
127,128,1580729632578,-0.1046,-0.43249997,1.581,-0.18345329999999999,-4.371094,10.646986,-1
128,129,1580729632588,-0.0394,-0.3845,1.9372,0.0051523224,-4.214551999999999,11.222696000000001,-1
129,130,1580729632599,0.33879998,-0.21100000000000002,2.7091,0.64082247,-3.9126046000000003,12.347827,-1
130,131,1580729632609,0.9008,-0.0179,3.7893999,1.1835879999999999,-3.6895222999999997,13.654266,-1
131,132,1580729632619,1.4427999,0.1823,5.1477,1.6780481,-3.4869727999999998,14.742020000000002,-1
132,133,1580729632629,2.1220999,0.3631,6.3395,2.259255,-3.378075,15.745448000000001,-1
133,134,1580729632640,2.3961,0.28759998,6.9385996,2.2889717000000003,-3.5446253,16.158957,-1
134,135,1580729632650,2.3349,0.0447,7.0199,1.9197859,-3.7435546000000004,15.891254,-1
135,136,1580729632660,1.8621999,-0.267,6.6707997,1.44854,-3.8959694,15.79587,-1
136,137,1580729632670,1.3032,-0.5262,6.6492996,0.9448764999999999,-3.9905690000000003,15.953485500000001,-1
137,138,1580729632680,0.8308,-0.70629996,6.7286997,0.6526307,-3.9924845999999996,15.859575,-1
138,139,1580729632690,0.64419997,-0.81299996,6.4129996,0.66089547,-4.003019,15.430467000000002,-1
139,140,1580729632701,0.6556,-1.0169,6.0481997000000005,0.64746875,-4.081405,15.417567000000002,-1
140,141,1580729632711,0.54649997,-1.2409999,6.0587,0.5660659,-4.0237620000000005,15.595954,-1
141,142,1580729632721,0.49789998,-1.2958,6.1905,0.6290238,-3.8920622000000002,15.66894,-1
142,143,1580729632732,0.66789997,-1.2133,6.1678996,0.9509003,-3.6176483999999998,15.476397500000001,-1
143,144,1580729632742,0.9148,-1.1941,5.9115,1.1477708,-3.2553291,15.17446,-1
144,145,1580729632753,1.1014999,-0.9482,5.547999999999999,1.2379843000000001,-2.9614456000000002,14.946617999999999,-1
145,146,1580729632764,1.2947,-0.6762,5.0474997,1.3867025,-2.545228,14.05134,-1
146,147,1580729632774,0.8415,-0.8548,3.8458,1.0188190000000001,-2.507476,13.525047,-1
147,148,1580729632784,0.8415,-0.8548,3.8458,0.6085486,-2.4688432000000002,13.339572,-1
148,149,1580729632794,-0.69629997,-1.0634999,4.1928997,-0.43581173,-2.3208816000000003,13.929704999999998,-1
149,150,1580729632804,-1.5979999,-1.2901,4.9969997,-1.409409,-2.4212945,14.812007000000001,-1
150,151,1580729632816,-1.5979999,-1.2901,4.9969997,-1.6805476000000001,-2.5716598,14.649737,-1
151,152,1580729632826,-2.0860999,-2.0484,3.3084,-1.6092674999999999,-2.8143935,12.456226,-1
152,153,1580729632836,-1.8096,-2.2972,1.8458999,-1.3171366000000002,-2.7656765,11.416857,-1
153,154,1580729632846,-1.4607999,-2.1459,0.93689996,-0.9387761,-2.3524947,10.631960000000001,-1
154,155,1580729632857,-1.2239,-1.7256,0.6004,-0.7573052,-1.8604479999999999,10.407547000000001,-1
155,156,1580729632867,-1.0579,-1.2430999,0.09999999400000001,-0.46008897,-0.96728617,9.586508,-1
156,157,1580729632877,-0.57089996,-0.8178,-0.7418,0.17856914,-0.44125137,8.747752,-1
157,158,1580729632887,0.1082,-0.56619996,-1.4746,0.6713054,-0.20332518,8.091339,-1
158,159,1580729632898,0.27269998,-0.5755,-2.0300999,0.63149464,-0.13199714,7.503553,-1
159,160,1580729632908,0.0976,-0.7987,-2.6831,0.31372663,-0.3290591,6.8544273,-1
160,161,1580729632918,0.0976,-0.7987,-2.6831,-0.14178462,-0.42299798,6.408483,-1
161,162,1580729632928,-0.8084,-1.1773,-3.6439998,-0.77018595,-0.41726148,6.017586,-1
162,163,1580729632940,-1.1976,-1.3047,-3.9322998999999994,-1.309092,-0.5324896,5.634476,-1
163,164,1580729632949,-1.5329,-1.5473,-4.2781997,-1.5143517,-0.6626576,5.417523,-1
164,165,1580729632959,-1.8106999,-1.8462,-4.6526,-1.9304448,-0.8955655,4.911446,-1
165,166,1580729632970,-2.0309,-2.0649,-5.2026,-2.1213584,-0.97797394,4.4254904,-1
166,167,1580729632981,-2.134,-2.1646,-5.7418,-2.2789638,-0.9408734000000001,3.8178706,-1
167,168,1580729632991,-2.0843,-2.1148999,-6.1136,-2.209829,-0.70987123,3.392603,-1
168,169,1580729633001,-1.9496,-2.0126,-6.4065,-1.8781172,-0.55002475,2.9270551,-1
169,170,1580729633011,-1.4397999,-1.9231999,-6.8858,-1.2213972,-0.39568493,2.5987720000000003,-1
170,171,1580729633021,-0.5538,-1.7169999999999999,-7.1594996,-0.46384305,0.028395232000000003,2.6431031000000003,-1
171,172,1580729633032,-0.0013,-1.469,-6.9930997,-0.3807547,-0.010103530999999999,2.963811,-1
172,173,1580729633042,0.0389,-1.6130999,-6.6610000000000005,-0.7748403,-0.3514688,3.1460385,-1
173,174,1580729633052,-0.3441,-1.9909999,-6.4961,-1.1410096,-0.52275,3.2753349999999997,-1
174,175,1580729633062,-0.7236,-2.1841,-6.2626995999999995,-1.5098889,-0.55303186,3.6657622,-1
175,176,1580729633072,-1.0918,-2.1719,-5.8536,-1.9439002,-0.51434153,3.9403867999999993,-1
176,177,1580729633082,-1.3687999,-2.1965,-5.7099,-2.110441,-0.567828,4.0082097,-1
177,178,1580729633093,-1.5239999,-2.2835999,-5.6355,-2.0964110000000002,-0.59790874,4.1876693,-1
178,179,1580729633103,-1.4922999,-2.335,-5.4543,-2.0577686,-0.5556272,4.381906,-1
179,180,1580729633113,-1.3167,-2.2603,-4.6926,-1.9173629,-0.4974481,4.9444957,-1
180,181,1580729633123,-1.3316,-2.0783,-4.4059,-1.9255702000000001,-0.29608613,5.223545,-1
181,182,1580729633133,-1.4849,-2.0103,-4.0905,-2.0794888,-0.21152294,5.537597,-1
182,183,1580729633144,-1.4849,-2.0103,-4.0905,-2.3435214,-0.25437912,6.1271167,-1
183,184,1580729633155,-1.8927,-1.9944998999999999,-2.9622,-2.4506952999999996,-0.18213171,6.666951700000001,-1
184,185,1580729633165,-1.6954,-1.8275,-2.5500998,-2.227393,0.00012449848999999998,7.084634299999999,-1
185,186,1580729633175,-1.3840000000000001,-1.6211,-2.5005,-1.8177929,0.24190056,7.0951304,-1
186,187,1580729633185,-1.1014,-1.4706,-2.6666,-1.5165448000000001,0.43350372,6.9604807,-1
187,188,1580729633195,-0.73829997,-1.1786,-2.5391,-1.1344398,0.74074686,7.181255,-1
188,189,1580729633205,-0.43109998,-0.8441,-2.0105999,-0.90436655,1.007911,7.6146054,-1
189,190,1580729633215,-0.21759999,-0.4692,-1.5119,-0.6129635,1.4448718999999999,8.196483,-1
190,191,1580729633226,0.093899995,-0.2417,-1.17,-0.28295633,1.6045653,8.528645,-1
191,192,1580729633237,0.093899995,-0.2417,-1.17,-0.21193475,1.5580125,8.908374,-1
192,193,1580729633247,0.0813,-0.2889,-0.2208,-0.2988634,1.5604161,9.414603999999999,-1
193,194,1580729633257,-0.048699997,-0.1461,0.16149999,-0.42991245,1.7542028000000003,9.874473,-1
194,195,1580729633267,-0.067,-0.13589999,0.2803,-0.40453390000000006,1.6405644,9.892506,-1
195,196,1580729633277,-0.1749,-0.29600000000000004,0.1158,-0.63599575,1.589022,9.600567,-1
196,197,1580729633287,-0.4888,-0.2512,-0.24419999,-0.90088063,1.6615471999999998,9.295363,-1
197,198,1580729633297,-0.57409996,-0.23449999,-0.3789,-0.8646803,1.6795900000000001,9.252948,-1
198,199,1580729633307,-0.4308,-0.1971,-0.28849998,-0.69780445,1.7924048,9.359299,-1
199,200,1580729633317,-0.2659,-0.022499999,-0.1787,-0.5866369,1.8986403000000003,9.44458,-1
200,201,1580729633328,-0.0263,0.0946,0.2347,-0.23730369,2.0656407,10.023383,-1
201,202,1580729633338,0.1653,0.155,0.5399,-0.068062365,2.1775742,10.178901,d
202,203,1580729633348,0.2456,0.294,0.59029996,-0.06454767,2.2980697,10.257363,-1
203,204,1580729633359,0.1768,0.34579998,0.7094,-0.16026787,2.2924482999999998,10.380569,-1
204,205,1580729633369,0.0674,0.3017,0.8283,-0.2851686,2.2682860000000002,10.373472,-1
205,206,1580729633380,-0.003,0.3066,0.6729999999999999,-0.33336866,2.244363,10.035373,-1
206,207,1580729633390,-0.078899994,0.2285,0.2147,-0.5218115,2.0964970000000003,9.566799000000001,-1
207,208,1580729633400,-0.27719998,0.0557,-0.1638,-0.83869845,2.0008630000000003,9.335452,-1
208,209,1580729633410,-0.59389997,-0.063099995,-0.2965,-1.2969677,1.7860458,9.314642,-1
209,210,1580729633420,-1.0189999,-0.3234,-0.2717,-1.5782578,1.570041,9.287003,-1
210,211,1580729633430,-1.3924999,-0.5983,-0.37359998,-2.0636199,1.3275179,9.0553875,-1
211,212,1580729633441,-1.9138,-0.8777,-0.65099996,-2.7235482,0.9053243000000001,8.690607,-1
212,213,1580729633451,-2.5539,-1.3237,-0.98679996,-3.420864,0.5900462,8.237098,-1
213,214,1580729633461,-3.4591,-1.6566,-1.6367999,-4.169137999999999,0.4487213,7.599541,-1
214,215,1580729633471,-4.1963,-1.8347,-2.4348,-4.892618,0.19846018,6.5624113,-1
215,216,1580729633481,-4.5216,-2.0363,-3.1158,-5.2486362,0.07944919,5.867853,-1
216,217,1580729633493,-5.0839996,-2.6896,-4.8968,-5.582703599999999,-0.46066359999999995,4.6489744,-1
217,218,1580729633503,-5.0720997,-3.3578,-6.0153,-5.554739499999999,-1.0846978,3.5147169000000003,-1
218,219,1580729633514,-4.9549,-4.0917,-6.957000000000001,-5.4085402,-1.7800124,2.569371,-1
219,220,1580729633524,-4.9549,-4.0917,-6.957000000000001,-5.6600556,-2.0699215,2.4901998,-1
220,221,1580729633534,-5.8662996,-4.1031,-6.2609,-6.178247,-1.7326837,3.2496405,-1
221,222,1580729633544,-6.3143997,-4.0505,-5.214299700000001,-6.561683,-1.68072,4.3082128,-1
222,223,1580729633554,-6.3940997,-4.1198,-4.6120996,-6.590174,-1.7689032999999998,4.913199,-1
223,224,1580729633565,-6.3940997,-4.1198,-4.6120996,-6.815469,-1.3355911,4.7502494,-1
224,225,1580729633576,-6.1615,-3.4524998999999994,-5.8782997,-6.2918085999999995,-1.133281,3.6559459999999997,-1
225,226,1580729633586,-5.6524,-3.5419,-7.4323997,-5.7842474,-1.3137941,1.8311523999999997,-1
226,227,1580729633596,-5.7804,-3.9352998999999995,-8.3024,-5.7364690000000005,-1.8599976999999999,1.3754879999999998,-1
227,228,1580729633607,-5.3122,-4.2798,-7.7254996,-5.1009135,-2.136126,2.2195398999999996,-1
228,229,1580729633617,-4.8448997,-4.3382,-6.7509,-4.6539736,-2.2248454,3.3009337999999997,-1
229,230,1580729633627,-4.4444,-4.3175,-5.5052,-4.079078,-2.2005396,4.599663700000001,-1
230,231,1580729633637,-3.4993,-3.8818,-4.5078998,-2.6322810000000003,-1.7779534,5.1945367,-1
231,232,1580729633648,-1.7595999,-3.5637,-4.5526,-1.0368617,-1.8417732,5.1351510000000005,-1
232,233,1580729633658,-0.4321,-3.6079998,-4.0696,0.12267889,-1.9369474999999998,5.815018,-1
233,234,1580729633668,1.1302,-3.1818,-2.8808,2.0186856,-1.5072936000000001,7.4296484,-1
234,235,1580729633678,2.6345,-2.533,-1.1905999,3.8110902,-1.0606219,9.710202,-1
235,236,1580729633688,3.9352998999999995,-2.0871,0.6493,4.842225,-0.9347825000000001,11.04814,-1
236,237,1580729633698,5.4098997,-1.7282,2.0525,6.650355,-0.8527379999999999,12.07574,-1
237,238,1580729633708,7.4037,-1.6946,2.3235,8.567852,-1.0137912,12.038229,-1
238,239,1580729633718,8.8456,-1.4059,2.3339,9.862214999999999,-0.68913746,12.398881,-1
239,240,1580729633729,10.034599,-0.76299995,3.5921998,10.8688135,-0.3378889,13.841187,-1
240,241,1580729633739,11.1704,-0.1074,6.1085,12.147366,0.28497705,17.266514,-1
241,242,1580729633749,11.6594,0.44939998,8.1968,12.45052,0.28221893,18.784206,-1
242,243,1580729633759,12.0644,0.3622,9.318,13.0369835,-0.2814336,19.248376999999998,-1
243,244,1580729633769,12.7107,-0.0453,9.2947,13.684213,-0.80635756,18.588821,-1
244,245,1580729633779,13.401198999999998,-0.3172,8.5366,14.431175,-1.0459023,17.962823999999998,-1
245,246,1580729633789,14.0934,-0.3514,8.0724,14.905122,-0.95153236,17.721066,-1
246,247,1580729633800,14.408899,-0.0088,7.8528,14.952795000000002,-0.47789225,17.4141,-1
247,248,1580729633810,14.5178995,0.62189996,7.4557,15.134523999999999,-0.05474103,16.99144,-1
248,249,1580729633820,14.676398999999998,1.0546,6.7921996,14.875491,0.36003047,15.528360999999999,-1
249,250,1580729633832,14.266399,1.3032,5.4307,14.547035000000001,0.34461182,13.799403,-1
250,251,1580729633842,14.0313,1.2312,3.6945998999999996,14.488579000000001,0.08207323400000001,12.180069999999999,-1
251,252,1580729633852,13.94,0.91749996,2.1341,14.167774,-0.20475213,11.014851,-1
252,253,1580729633862,13.5286,0.64989996,1.0935999,13.752820999999999,-0.38405868,10.462019999999999,-1
253,254,1580729633873,13.1517,0.4509,0.6519,13.296956,-0.6828934,10.178747,-1
254,255,1580729633883,12.7504,0.1971,0.4166,12.93093,-0.90887725,9.587533,-1
255,256,1580729633893,12.406199,-0.0095,-0.17189999,12.895698,-0.9870049000000001,9.094749,-1
256,257,1580729633903,12.3489,-0.0681,-1.0649998999999999,12.436709,-1.0992258999999998,7.5117984,-1
257,258,1580729633914,11.068999,-0.72249997,-3.5286998999999994,11.520181,-1.6277986,6.2393279999999995,-1
258,259,1580729633924,10.1256,-1.253,-4.883,10.571185,-2.146737,4.878722,-1
259,260,1580729633934,8.949699,-1.9402,-5.5789,9.431307,-2.8194597000000003,4.1924195,-1
260,261,1580729633944,7.6138997,-2.4879,-5.586,8.134922999999999,-3.3735738,4.1758037,-1
261,262,1580729633955,6.2918,-2.7877998,-5.002,6.872565299999999,-3.701225,4.754387,-1
262,263,1580729633965,5.1138997,-2.9132,-3.9545999,5.522418,-3.911618,6.0001664,-1
263,264,1580729633975,5.1138997,-2.9132,-3.9545999,4.5807304,-4.1203732,6.746688000000001,-1
264,265,1580729633985,3.4197,-3.2974,-2.4919,4.066226,-4.505083,7.376258,-1
265,266,1580729633996,2.9717999,-3.8897,-1.7234,3.5685767999999998,-5.5922327,8.337396,-1
266,267,1580729634006,2.2288,-5.265,-0.7959999999999999,2.3633451,-7.135075,9.276392,-1
267,268,1580729634016,0.0319,-6.5167,0.15259999,-0.24692840000000002,-8.18909,10.246848,-1
268,269,1580729634026,-3.0272,-7.1115,1.3284999,-3.1529243,-8.729968,11.547082000000001,-1
269,270,1580729634036,-5.6594,-7.5126995999999995,2.7419,-5.4544034,-9.147038,12.857533,-1
270,271,1580729634046,-7.7847995999999995,-7.7697997,3.6271,-7.2270226,-9.398927,13.350107000000001,-1
271,272,1580729634056,-9.3321,-8.015699,3.8053,-8.0246935,-9.593518,13.403813000000001,-1
272,273,1580729634066,-10.7455,-8.345099000000001,3.8939,-9.791547999999999,-10.096866,13.637172,-1
273,274,1580729634076,-11.806,-8.5222,4.5406,-10.5941515,-10.151760000000001,14.549948,-1
274,275,1580729634086,-12.3466,-8.144899,5.8251,-10.983592,-9.721915,15.890058499999999,-1
275,276,1580729634097,-12.752399,-7.6856,7.1098,-11.427247,-9.389801,17.068111,-1
276,277,1580729634107,-13.356998999999998,-7.2681,8.1089,-12.034455,-8.958567,17.871614,-1
277,278,1580729634117,-13.9515,-6.678499700000001,8.467899000000001,-12.370084,-8.381699000000001,17.792585,-1
278,279,1580729634127,-13.826799,-6.0871997,7.8714,-11.946214,-7.8607197,16.94547,-1
279,280,1580729634137,-13.294,-5.749399700000001,6.9371,-11.353199,-7.563828999999999,16.210106,-1
280,281,1580729634147,-12.8213,-5.3824,6.6369996,-10.9879875,-7.185066,16.113954999999997,-1
281,282,1580729634158,-12.4987,-5.0126,6.8150997,-10.566647,-6.7699504,16.516335,-1
282,283,1580729634168,-11.9635,-4.4616,7.5601997,-9.98248,-6.0593123,17.584599,-1
283,284,1580729634179,-11.490399,-3.8074,8.4212,-9.488748,-5.4712873,18.124029999999998,-1
284,285,1580729634189,-10.8084,-3.2875997999999997,8.6806,-9.0161705,-5.2115545,18.131432999999998,-1
285,286,1580729634199,-9.7206,-2.8846998,8.406199,-7.427934,-4.701149,17.487410999999998,-1
286,287,1580729634210,-8.4879,-2.5884,7.6182,-6.3198495,-4.419332499999999,16.564610000000002,-1
287,288,1580729634221,-7.2825,-2.3502998,6.7588,-4.730004,-3.7550852,15.924334,-1
288,289,1580729634231,-5.9651,-1.7606,6.3198,-3.6774461000000005,-3.229941,15.465738,-1
289,290,1580729634241,-4.982,-1.4476999,5.8108,-3.1654695999999998,-3.271514,15.072351000000001,-1
290,291,1580729634254,-4.3461,-1.7713,5.3677,-2.9330025,-3.3378427000000004,14.949481,-1
291,292,1580729634264,-4.0615,-2.0054998,5.0818,-2.6202815,-3.4911482000000005,14.620201999999999,-1
292,293,1580729634274,-3.7644,-2.3042998,4.8354,-2.3608265,-3.6735480000000003,14.448720000000002,-1
293,294,1580729634285,-3.3449,-2.4868,4.7759,-2.028339,-3.7214322,14.423743,-1
294,295,1580729634295,-2.5978,-2.5233998,4.7369,-1.1561409,-3.6099677000000003,14.453729000000001,-1
295,296,1580729634305,-2.5978,-2.5233998,4.7369,-0.6254611999999999,-3.5014627000000003,14.676476000000001,-1
296,297,1580729634316,-0.8236,-2.2693,5.2899,0.51187074,-3.1355138,15.00271,-1
297,298,1580729634326,-0.2439,-2.3276,5.2734,0.97657573,-3.0879168999999997,14.975751,-1
298,299,1580729634337,0.0999,-2.5739,5.1011,1.259647,-3.2157097,14.8011465,-1
299,300,1580729634347,0.5712,-2.7775998,4.7156997,1.8246115,-3.1544087000000003,14.185606,-1
300,301,1580729634358,1.0993998999999999,-2.6655,3.9315998999999997,2.3008661,-2.8674588,13.395674,-1
301,302,1580729634368,1.4922999,-2.7119,3.3669998999999997,2.6053797999999997,-2.8179369999999997,13.048792,-1
302,303,1580729634378,1.6646,-2.9104997999999997,3.1301,2.6075635,-2.7954986,12.587342999999999,-1
303,304,1580729634388,1.5417,-3.0465999,2.5342999,2.469533,-2.627914,11.767607,-1
304,305,1580729634399,1.5541999,-2.9564,1.6391,2.7736158,-2.2448992999999997,10.7998705,-1
305,306,1580729634409,1.9748,-2.7944,0.6509,2.9954145,-1.9640403000000002,9.984693,-1
306,307,1580729634420,2.0658,-2.6322,-0.31329998,3.0421302000000003,-1.6399801999999999,9.056814,-1
307,308,1580729634430,2.2525,-2.6322,-1.1566,3.320078,-1.3947183,7.985543700000001,-1
308,309,1580729634440,2.4842,-2.6763,-2.0653,3.4982637999999997,-1.3132386999999999,7.1732197,-1
309,310,1580729634450,2.7177,-2.7847,-2.7352,3.7486493999999997,-1.1995046,6.471939,-1
310,311,1580729634461,2.9554,-2.8033,-3.4889,3.825714,-0.88272303,5.3630786,-1
311,312,1580729634471,2.9422998,-2.7645,-4.4241,3.6243807999999995,-0.7844267,4.398483799999999,-1
312,313,1580729634481,2.7826998,-2.8404999,-5.3361,3.603628,-0.52336293,3.5967612,-1
313,314,1580729634491,2.8216,-2.7428,-6.0694,3.7180419999999996,-0.32720116,2.9013605,-1
314,315,1580729634502,2.9496999,-2.7642,-6.6833,3.6911216000000002,-0.2838374,2.3693020000000002,-1
315,316,1580729634513,2.9248,-2.912,-7.0518,3.5297812999999993,-0.21884918,2.1204772000000003,-1
316,317,1580729634523,2.7682,-2.9991999,-7.3033,3.2764556000000002,-0.19834524,1.8167490000000002,-1
317,318,1580729634534,2.3401,-3.0937997999999998,-7.7823,2.4323556,-0.026824636000000002,0.9128325,-1
318,319,1580729634544,1.2499,-2.8463,-9.2314,1.7498837,0.39325240000000006,-0.053112973,-1
319,320,1580729634554,1.1360999,-2.6908,-9.6027,1.6102443000000002,0.5968361999999999,-0.37821683,-1
320,321,1580729634564,1.1360999,-2.6908,-9.6027,1.7521918,1.158535,-1.004425,-1
321,322,1580729634575,1.5770998999999999,-1.8894999,-10.4833,1.9452889,1.572732,-1.3220973,-1
322,323,1580729634585,1.8777,-1.558,-10.6791,2.2313576,1.9874269,-1.5508969,-1
323,324,1580729634595,1.8727,-1.5137,-10.827399,2.0887973,2.1200752,-1.7525172999999998,-1
324,325,1580729634605,0.98899996,-1.4607999,-10.948899,1.1133708999999998,2.275095,-1.8990041000000002,-1
325,326,1580729634615,0.21169999,-1.3375,-11.0843,0.49005479999999996,2.4435318,-2.0541773,-1
326,327,1580729634625,0.39159998,-1.2601,-11.2247,0.79653174,2.5387254,-2.217816,-1
327,328,1580729634636,0.8319,-1.1599,-11.4093,1.2143487,2.684082,-2.4244835,-1
328,329,1580729634646,1.1431,-1.0356,-11.6195,1.5118905,2.792865,-2.6528714,-1
329,330,1580729634656,1.4472,-1.0021,-11.8664,1.9671334999999999,2.7489552,-2.891851,-1
330,331,1580729634666,1.8718,-1.2633,-11.9546995,2.2222117999999997,2.4575232999999996,-2.9427612,-1
331,332,1580729634676,1.7899,-1.3871,-11.962999,2.0364983,2.3861380000000003,-2.8073835,-1
332,333,1580729634686,1.6491,-1.2968,-11.5664,1.9476734,2.3858411,-2.4994028,-1
333,334,1580729634697,1.3223,-1.4202,-10.9776,1.520931,2.142389,-1.7626207999999999,-1
334,335,1580729634707,0.7276,-1.7164999,-10.4871,0.8413224,1.5786504,-1.1824579,-1
335,336,1580729634717,0.1995,-2.258,-10.221,0.32508472,0.9678513000000001,-1.0971764,-1
336,337,1580729634727,-0.4213,-2.7596,-10.523,-0.24783818,0.34547374,-1.5997671999999998,-1
337,338,1580729634737,-0.78209996,-3.3332,-11.4739,-0.45233172,-0.24262840000000002,-2.8106298,-1
338,339,1580729634748,-0.96999997,-3.5154,-12.9214,-0.6588556,-0.32200098,-4.0898805,-1
339,340,1580729634758,-1.0278,-3.4587998,-13.682699,-0.27525659999999996,-0.6110769,-4.1717815,-1
340,341,1580729634768,-0.3909,-3.6104,-13.1486,0.43480617,-1.0065511,-2.9777644,-1
341,342,1580729634778,0.15529999,-3.9608,-11.715,0.8360744000000001,-1.938202,-1.2601258999999998,-1
342,343,1580729634788,0.4132,-4.8947,-10.0727,1.0192978000000001,-3.1319892000000005,0.078443624,-1
343,344,1580729634798,0.29299998,-5.7426996,-9.2003,0.7369256999999999,-3.7733192000000004,0.42000043,-1
344,345,1580729634809,-0.3266,-6.0597997,-9.1387,0.16586071,-4.245705,0.47869667,-1
345,346,1580729634818,-0.6152,-6.1099,-9.066199000000001,0.18883549,-4.471104599999999,0.74971074,-1
346,347,1580729634828,-0.5647,-6.1383,-8.3054,0.36887947,-4.9145970000000005,2.6530723999999997,-1
347,348,1580729634838,-0.3096,-6.2639,-5.8408,1.3776715,-5.462869,5.968812000000001,-1
348,349,1580729634848,0.99759996,-6.5316997,-2.4594998,2.8509865000000003,-6.016312999999999,8.600816,-1
349,350,1580729634859,2.0488,-6.8339996,-0.6904,3.8082747,-7.044622400000001,9.283095,-1
350,351,1580729634872,2.7579,-7.8128,-0.44079998,4.074212999999999,-8.392645,9.142192999999999,-1
351,352,1580729634882,2.3829,-8.4893,-0.6339,3.0128060000000003,-8.654571,9.8182955,-1
352,353,1580729634892,1.3758999,-8.0525,0.3515,2.131098,-8.687792,13.793829,-1
353,354,1580729634902,0.5546,-7.862,4.1414,1.7105231,-9.170012,18.359054999999998,-1
354,355,1580729634912,0.0602,-7.928,8.7675,2.3109697999999996,-9.594103,20.921894,-1
355,356,1580729634923,0.6167,-7.9414997000000005,11.3876,3.7533898,-10.24973,20.87129,-1
356,357,1580729634933,2.026,-8.2252,11.414499000000001,4.8838553,-10.858701,19.876163000000002,-1
357,358,1580729634944,3.8284,-7.6489,9.5173,5.536792299999999,-10.333086999999999,18.812881,-1
358,359,1580729634954,4.0954,-5.6933,11.518499,5.819586,-8.695568,20.711645,-1
359,360,1580729634964,4.0954,-5.6933,11.518499,6.429198,-7.090572,24.588682000000002,-1
360,361,1580729634974,4.7762,-2.4198,18.338998999999998,6.500784400000001,-5.930945400000001,27.524335999999998,-1
361,362,1580729634984,4.553499700000001,-1.8860999,18.461899,6.316191000000001,-5.7918614999999996,27.302431,-1
362,363,1580729634994,3.9784,-2.0177999,16.7714,5.5134254,-6.243321400000001,25.109123,-1
363,364,1580729635005,3.0995998,-2.3174999,14.7695,4.582148,-6.6938143,23.027184,-1
364,365,1580729635015,1.8939999,-2.3876998,12.644899,3.145416,-6.845233400000001,20.769486999999998,-1
365,366,1580729635026,0.14729999,-2.1062999,10.4193,1.4288499,-6.589236,18.598515,-1
366,367,1580729635036,-0.68939996,-1.4149,8.9021,0.77581716,-5.706685,17.004185,-1
367,368,1580729635046,-0.5304,-0.3148,8.0387,1.2275839,-4.6412463,16.299084,-1
368,369,1580729635056,0.368,0.67329997,7.6359,2.0573661,-4.0245476,16.016884,-1
369,370,1580729635066,0.368,0.67329997,7.6359,2.9011786,-3.6864862,15.793170000000002,-1
370,371,1580729635076,2.1698,1.4484999,7.2162,3.6391002999999995,-3.5828462,15.554841,-1
371,372,1580729635087,2.1894,1.2715,7.2762,3.3807182,-3.9359238,15.650456,-1
372,373,1580729635097,1.7421,0.86969995,7.4013995999999995,2.7836137,-4.4752517,15.635716,-1
373,374,1580729635107,0.99869996,0.4421,7.1464996,1.9712037,-4.8034099999999995,15.163044000000001,-1
374,375,1580729635117,0.32209998,0.42499998,6.6256,1.5211226,-4.6716432999999995,14.650657,-1
375,376,1580729635128,0.3047,0.7628,6.124399700000001,1.8318706999999999,-4.191012000000001,14.084954000000002,-1
376,377,1580729635138,0.7585,1.2463,5.7040997,2.216322,-3.8010538,13.831676500000002,-1
377,378,1580729635148,1.0289,1.5256,5.3764,2.2975717,-3.6839101000000003,13.502513,-1
378,379,1580729635158,0.8426,1.4248999,4.7688,2.0803316,-3.8340650000000003,12.706814,-1
379,380,1580729635168,0.76199996,1.2504,4.0,1.9373976000000002,-3.9915748,11.958033,-1
380,381,1580729635179,0.61149997,1.0733,3.2774,1.6764776000000001,-4.2503495000000004,11.254481,-1
381,382,1580729635191,0.3789,0.7979999999999999,2.8188,1.4556075000000002,-4.4326153,10.990917999999999,-1
382,383,1580729635201,0.1013,0.63159996,2.4977999,0.95899266,-4.5769954,10.520763,-1
383,384,1580729635212,-0.2435,0.49359998,2.1566,0.58605266,-4.6460056,10.237950999999999,-1
384,385,1580729635222,-0.5445,0.4301,1.8433,0.33382833,-4.7303963,9.978314,-1
385,386,1580729635232,-0.77599996,0.3017,1.5864999,0.13169068,-4.742224,9.726693,-1
386,387,1580729635242,-0.9185,0.26569998,1.3472998999999999,0.07890331,-4.7320247,9.535855999999999,-1
387,388,1580729635253,-0.95729995,0.2357,1.1263,0.1365461,-4.6970983,9.368367,d
388,389,1580729635263,-0.88809997,0.2341,0.9442,0.3658053,-4.70453,9.211174,-1
389,390,1580729635273,-0.63989997,0.18329999,0.7521,0.719314,-4.612707599999999,9.078611,-1
390,391,1580729635283,-0.026999999,0.25259998,0.4585,0.9543671,-4.5667767999999995,8.961344,-1
391,392,1580729635294,0.088599995,0.2253,0.4062,1.0526443,-4.553532,8.930985,-1
392,393,1580729635304,0.088599995,0.2253,0.4062,0.9088198000000001,-4.618444,9.061911,-1
393,394,1580729635314,-0.0951,0.1099,0.551,0.66039747,-4.7404523,9.295106,-1
394,395,1580729635324,-0.5731,-0.2676,0.77959996,0.36588190000000004,-4.925246700000001,9.372591,-1
395,396,1580729635334,-0.6476,-0.3751,0.78349996,0.30534690000000003,-4.9817305,9.402739,-1
396,397,1580729635346,-0.5056,-0.4256,0.7475,0.4591313,-4.988722,9.394387,-1
397,398,1580729635356,-0.4052,-0.3558,0.7026,0.5883224,-4.851007,9.35543,-1
398,399,1580729635366,-0.1574,-0.32979998,0.6792,0.85954714,-4.785999299999999,9.413043,-1
399,400,1580729635378,0.3046,-0.3346,0.98319995,1.358087,-4.7389007,9.883859,-1
400,401,1580729635388,0.5536,-0.2963,1.4362,1.4252683000000002,-4.71108,10.413695,-1
401,402,1580729635398,0.5157,-0.3272,1.8402,1.2922559999999998,-4.682723,10.773199,-1
402,403,1580729635408,0.1665,-0.31309998,2.2333998999999998,0.8453255999999999,-4.6169977,11.106874000000001,-1
403,404,1580729635418,-0.2385,-0.29479998,2.3894,0.49843448,-4.5634440000000005,11.246686,-1
404,405,1580729635429,-0.3823,-0.2895,2.5247998,0.4673482,-4.508224,11.605547999999999,-1
405,406,1580729635440,-0.3698,-0.2429,3.0537,0.5267148,-4.4033675,12.501391,-1
406,407,1580729635450,-0.2471,-0.1812,4.105,0.6517879,-4.329234,13.186066,-1
407,408,1580729635460,0.0854,-0.0972,5.275,1.2007688,-4.144239,14.8106365,-1
408,409,1580729635470,0.5293,0.0111,6.315,1.4920186000000002,-4.045645700000001,15.678075,-1
409,410,1580729635481,0.6989,0.0391,6.9575996,1.407848,-4.0824489999999996,15.970647,-1
410,411,1580729635491,0.56189996,-0.1863,7.0337996,1.3002238000000002,-4.3461847,16.034468,-1
411,412,1580729635501,0.47869998,-0.4775,7.0743,1.0845158000000001,-4.465866,16.219433,-1
412,413,1580729635512,0.2224,-0.6838,7.2874,0.83072096,-4.5262384,16.63885,-1
413,414,1580729635521,-0.061899997000000005,-0.8806,7.8318,0.6601197,-4.648592,17.24916,-1
414,415,1580729635532,-0.196,-1.0979999,8.3349,0.5845011999999999,-4.8254848,17.612764000000002,-1
415,416,1580729635542,-0.28419998,-1.4477999,8.4324,0.48093766,-5.093433999999999,17.402464000000002,-1
416,417,1580729635552,-0.38149998,-1.8047999,8.192699000000001,0.70837724,-5.11457,17.366945,-1
417,418,1580729635564,-0.16939999,-1.9987999,8.0978,1.133281,-4.6990137,17.42257,-1
418,419,1580729635574,0.5435,-1.5820999,7.848099700000001,1.4760925,-4.2648296,17.169071,-1
419,420,1580729635584,0.83419997,-1.3837999,7.388,1.7757026999999999,-3.8708975,16.732126,-1
420,421,1580729635595,0.83419997,-1.3837999,7.388,1.9244401000000002,-3.6035513999999997,16.232246,-1
421,422,1580729635605,0.9465,-1.4121,5.6951,1.7673997,-3.4935712999999997,15.038134,-1
422,423,1580729635615,0.9465,-1.4121,5.6951,1.6339563999999998,-3.4130684999999996,14.138268,-1
423,424,1580729635626,0.7058,-1.6198,3.5669999999999997,1.5778172,-3.0748158,12.95763,-1
424,425,1580729635635,0.7058,-1.6198,3.5669999999999997,1.5632222,-2.8283183999999997,12.437380000000001,-1
425,426,1580729635646,0.3938,-1.6635,2.1160997999999998,1.1863173,-2.667792,11.678724,-1
426,427,1580729635656,-0.2683,-1.8549999,1.4079,0.41741469999999997,-2.6080422000000003,10.753979,-1
427,428,1580729635666,-0.9202,-2.1457,0.3046,-0.15328638,-2.667064,9.580982,-1
428,429,1580729635677,-1.4264,-2.4275,-0.7929999999999999,-0.6281810999999999,-2.6541834,8.694055,-1
429,430,1580729635687,-1.7011,-2.5047998,-1.1898,-0.74237496,-2.3356395,8.650806,-1
430,431,1580729635697,-1.5579,-2.1139997999999998,-0.9162,-0.5762173,-1.6560596999999997,8.998847,-1
431,432,1580729635707,-1.3535,-1.5792999,-0.5710000000000001,-0.39379832,-1.0285202,9.335596,-1
432,433,1580729635717,-1.1518999,-1.3055999,-0.2521,-0.32722992,-0.73744285,9.466138,-1
433,434,1580729635727,-1.1518999,-1.3055999,-0.2521,-0.44927675,-0.82350963,8.335461,-1
434,435,1580729635737,-1.2132,-1.7564,-1.8565999,-0.2692232,-0.9464471,7.4686546,-1
435,436,1580729635747,-0.8865,-2.042,-2.9550998,-0.0033039981,-0.98765606,6.4943585,-1
436,437,1580729635757,-0.5118,-2.0814,-4.2848997,0.60931474,-0.6734985,4.9390182000000005,-1
437,438,1580729635767,0.41259998,-1.8233,-5.3782,1.7496346999999999,-0.212902,3.8822457999999997,-1
438,439,1580729635778,1.7053,-1.6669999,-6.2879996,2.7084167000000003,-0.049406745,3.2089007,-1
439,440,1580729635788,2.3534,-1.7358999,-6.9772997000000005,2.932696,0.0323313,2.4607127,-1
440,441,1580729635798,1.7924,-1.8671,-7.3672,1.9343616999999997,-0.16729724,2.1655938999999997,-1
441,442,1580729635808,0.72679996,-2.263,-7.5734,0.9514558000000001,-0.44409567,1.779591,-1
442,443,1580729635818,0.3225,-2.3992,-8.5629,0.7217273,-0.22007503,0.14409263,-1
443,444,1580729635829,0.3908,-2.1906,-9.9892,0.7204056999999999,-0.09291418,-0.6792925,-1
444,445,1580729635839,0.31419998,-2.1396,-11.050099000000001,0.44211328,0.16250883,-2.043384,-1
445,446,1580729635849,0.0308,-2.0305998,-11.866099,0.14820108,0.24674644,-2.4453994999999997,-1
446,447,1580729635860,-0.18239999,-2.0094,-11.7247,0.1425795,0.39534014,-1.7272058000000001,-1
447,448,1580729635870,-0.0409,-1.7593,-10.2669,0.2959329,0.629292,0.087723546,-1
448,449,1580729635880,-0.123799995,-1.7226,-9.082,-0.036478058,0.5252399999999999,0.7073238000000001,-1
449,450,1580729635891,-0.6946,-1.9161999,-8.5806,-0.8010520000000001,0.28094518,1.5339746,-1
450,451,1580729635901,-1.0731,-1.9369999,-7.8405,-0.9519728999999999,0.3189364,2.4201642999999997,-1
451,452,1580729635912,-1.0926,-1.8835,-6.9981,-0.6828455,0.26295040000000003,2.8705235,-1
452,453,1580729635922,-0.77,-1.9016,-6.7254996,-0.14344141,0.25517399999999996,2.4529650000000003,-1
453,454,1580729635932,-0.29819998,-1.8499,-7.127000000000001,0.4517667,0.33345485,2.2862327000000002,-1
454,455,1580729635942,0.2556,-1.7298,-7.3121996,1.2619166000000002,0.5310914000000001,2.7525180000000002,-1
455,456,1580729635952,1.2238,-1.4034,-6.6556997,1.9968408,0.90759397,4.280114,-1
456,457,1580729635963,1.7353,-1.0406,-5.3448997,1.4980615,0.66926557,5.745222,-1
457,458,1580729635975,1.2099,-1.1894,-3.8999998999999996,0.36102647,0.24743596,6.937985,-1
458,459,1580729635985,-0.73429996,-1.6415,-2.1701,-0.58547807,-0.030032866000000002,7.593488000000001,-1
459,460,1580729635996,-1.3228999,-1.7009999999999998,-1.6944,-1.1476556999999998,-0.16561173,8.077853999999999,-1
460,461,1580729636006,-1.5978999,-1.5697,-1.4698,-1.2173558,-0.017630901,8.187481,-1
461,462,1580729636016,-0.90889996,-1.1832,-1.8097,-0.19243635,0.42704898,7.716675,-1
462,463,1580729636026,0.3117,-0.5546,-2.372,1.2069362,1.0836540000000001,7.186416599999999,-1
463,464,1580729636037,1.3146,-0.0323,-2.6201,2.0503848000000002,1.4372201,7.1577435,-1
464,465,1580729636046,1.6327,0.1505,-2.1443,2.0468604999999997,1.4251438,8.013249,-1
465,466,1580729636057,1.1037999,0.1063,-0.94549996,1.5397302,1.315499,9.037585,-1
466,467,1580729636067,0.27399999999999997,-0.046699997,0.08549999400000001,0.5802012,0.96290004,10.038007,-1
467,468,1580729636077,-0.39139998,-0.271,0.5286,0.042626366,0.70420176,10.465448,-1
468,469,1580729636087,-0.79039997,-0.3538,1.0612,-0.22996786,0.63897413,10.992230000000001,-1
469,470,1580729636097,-0.85649997,-0.3258,1.35,-0.17549498,0.5793585,11.068663,-1
470,471,1580729636108,-0.7528,-0.3446,1.2964,-0.087512866,0.51564395,11.081208,-1
471,472,1580729636118,-0.5884,-0.26909998,1.5963999,0.41344988,0.58140796,11.648826,-1
472,473,1580729636129,0.044099998,-0.1476,2.0345,1.2914706,0.71468836,11.861594,-1
473,474,1580729636139,0.8804,0.0946,2.0911,1.9285678,0.94558513,11.930297999999999,-1
474,475,1580729636149,1.3459999999999999,0.2926,2.2658,2.136892,0.87105846,12.29073,-1
475,476,1580729636160,1.3634,0.115899995,2.7545,1.9319099999999998,0.591885,12.812656,-1
476,477,1580729636170,0.9562,-0.087,3.1850998,1.198183,0.46270344,13.212860999999998,-1
477,478,1580729636180,0.30519998,-0.1556,3.5093,0.78926295,0.31004915,13.483101000000001,-1
478,479,1580729636190,-0.079799995,-0.2954,3.7468,0.5109514000000001,0.152367,13.545742,-1
479,480,1580729636200,-0.41599998,-0.46499997,3.7594998,0.27353275,0.041410115,13.400653,-1
480,481,1580729636210,-0.60609996,-0.5826,3.4385,0.3084785,-0.006521805,12.920817,-1
481,482,1580729636221,-0.4297,-0.5949,2.7635,0.65267855,0.10422439,12.310133,-1
482,483,1580729636231,-0.1928,-0.4682,2.5384,0.7772249,0.2957701,12.305947,-1
483,484,1580729636241,-0.0692,-0.2886,2.5481,0.9659742,0.47062343,12.333874,-1
484,485,1580729636251,0.1762,-0.097899996,2.5867999,1.2779961000000002,0.6569977,12.395635,-1
485,486,1580729636262,0.44529998,0.0543,2.6643,1.2752092,0.73553705,12.555242,-1
486,487,1580729636272,0.4243,0.0982,2.9083,1.1910579,0.68050873,12.815424,-1
487,488,1580729636282,0.3136,-0.0002,3.1331,0.99278927,0.5798278,13.02825,-1
488,489,1580729636293,0.1467,-0.11109999599999999,3.2907,0.7388985,0.46768335,12.7542,-1
489,490,1580729636303,-0.060799997,-0.2496,2.9896998,0.7559836,0.46291409999999994,11.790122,-1
490,491,1580729636313,-0.0578,-0.3076,2.0433,0.9056306999999999,0.5463281,10.632228999999999,-1
491,492,1580729636323,0.0875,-0.2864,0.88189995,0.95821697,0.6427282,10.000829,-1
492,493,1580729636334,-0.013499998999999999,-0.1831,-0.1673,0.7839574,0.768941,9.569261000000001,-1
493,494,1580729636344,-0.013499998999999999,-0.1831,-0.1673,0.5755373,0.8618072,9.355955999999999,-1
494,495,1580729636355,-0.26479998,-0.1346,-0.3988,0.30067343,0.9190574,9.260092,-1
495,496,1580729636365,-0.45459998,-0.0477,-0.59639996,0.34048423,1.1022234,9.035392,-1
496,497,1580729636375,-0.34399998,0.0558,-0.99369997,0.44181642,1.212577,8.614596,-1
497,498,1580729636386,-0.359,0.094399996,-1.3914,0.3703447,1.3042365,8.229283,-1
498,499,1580729636396,-0.4114,0.1488,-1.7407999,0.37587053,1.4069573999999998,7.8342776,-1
499,500,1580729636407,-0.326,0.249,-2.0811,0.42718303,1.4864258,7.62445,-1
500,501,1580729636417,-0.1818,0.377,-2.2361,0.6425367,1.6863896,7.5212693,-1
501,502,1580729636427,0.0184,0.4662,-2.0097,0.8364383,1.7737683000000002,7.858565,-1
502,503,1580729636438,0.2165,0.5354,-1.5489998999999999,0.96635723,1.8263353,8.437999999999999,-1
503,504,1580729636447,0.18949999,0.6024,-0.7658,0.92705405,1.8858074,9.302114999999999,-1
504,505,1580729636457,0.25959998,0.6525,0.1152,0.9864494,1.9000577,9.828878,-1
505,506,1580729636467,0.22029999,0.66789997,0.78139997,0.9177837,1.8819287,10.757100999999999,-1
506,507,1580729636477,0.1846,0.6333,1.4002999,0.9528731,1.8757517,11.184887,-1
507,508,1580729636487,0.25,0.5645,1.3058,1.0137433,1.8117881999999998,10.9124365,-1
508,509,1580729636498,0.2993,0.3866,0.71239996,1.0440539,1.6567971999999997,10.214239,-1
509,510,1580729636508,0.29909998,0.30719998,0.3536,1.1069927,1.5821077,10.035469,-1
510,511,1580729636518,0.37539998,0.2447,0.3955,1.1292108,1.6208266000000002,10.207114,-1
511,512,1580729636528,0.3773,0.37559998,0.8578,1.1354643999999998,1.9138674999999998,10.983965,-1
512,513,1580729636538,0.4086,0.6405,1.5741,1.1685428999999998,2.1295178,11.639411,-1
513,514,1580729636549,0.48200000000000004,0.7815,2.2015998,1.1785219,2.1469572,12.186871,-1
514,515,1580729636559,0.45749998,0.60429996,2.9255998,1.0657454,1.7134726000000002,12.994481,-1
515,516,1580729636569,0.3209,0.1387,3.4413,0.7717661,1.2326308000000001,13.307097,-1
516,517,1580729636579,0.0036,-0.31039998,3.6936998,0.42437705,0.91957456,13.505614999999999,-1
517,518,1580729636589,-0.1812,-0.5269,3.8276,0.43142557,0.82138354,13.456504999999998,-1
518,519,1580729636599,0.054199997,-0.45589998,3.5799,0.7329896,1.1919293,12.905102000000001,-1
519,520,1580729636609,0.4856,-0.0596,2.9707,1.0749773999999999,1.4889158000000002,12.468025,-1
520,521,1580729636620,0.8351,0.1059,2.6373,1.0612059999999999,1.5800774,11.94564,-1
521,522,1580729636631,0.79389995,0.15799999,2.1190999,0.87606716,1.6482067999999999,11.175789,-1
522,523,1580729636641,0.6829,0.1617,1.2990999,0.6802693,1.679207,10.1704445,-1
523,524,1580729636651,0.57199997,0.1345,0.2465,0.40883390000000003,1.6313037000000001,9.08634,-1
524,525,1580729636661,0.3443,0.0175,-0.7935,-0.0025474306,1.511249,8.277733,-1
525,526,1580729636671,-0.075399995,-0.166,-1.4885,-0.55304146,1.3586711999999999,7.982565400000001,-1
526,527,1580729636682,-0.606,-0.40919998,-1.7220999,-1.0169228000000001,1.1422065000000001,7.770027000000001,-1
527,528,1580729636692,-1.0389,-0.6961,-1.9168999,-1.3033364,0.9473186,7.748087,-1
528,529,1580729636702,-1.4245,-0.9353,-1.7599,-1.7238060000000002,0.82262856,8.1824045,-1
529,530,1580729636712,-1.7249,-1.0879999,-1.4081,-1.8810765,0.6948548000000001,8.134194,-1
530,531,1580729636722,-1.8599999,-1.2380999,-1.5763999,-1.7856816999999998,0.779169,7.7224307,-1
531,532,1580729636733,-1.7587,-1.1812,-1.8916998999999999,-1.538083,0.9761351999999999,7.6757436000000006,-1
532,533,1580729636743,-1.4707999,-1.0009,-1.9334999,-1.1283584999999998,1.1670775,7.7822857,-1
533,534,1580729636753,-1.1143,-0.86249995,-1.8295,-0.94932014,1.1718947,7.9747699999999995,-1
534,535,1580729636763,-0.8761,-0.85569996,-1.5697,-0.44331038,1.3057401000000002,8.273988000000001,-1
535,536,1580729636773,-0.018199998999999998,-0.63019997,-1.3847,-0.018770542,1.4645523999999999,8.21194,-1
536,537,1580729636783,0.2286,-0.4852,-1.5761,0.26419538,1.6224643,8.013077000000001,-1
537,538,1580729636794,0.2848,-0.3699,-1.4829999,0.33386663,1.7682233,8.099843,-1
538,539,1580729636804,0.1318,-0.2251,-1.3211,0.19391118,1.926461,8.259881,-1
539,540,1580729636814,-0.089999996,-0.2669,-1.1689,-0.029803022999999998,1.9134556,8.399500999999999,-1
540,541,1580729636824,-0.089999996,-0.2669,-1.1689,-0.10910856,1.8992627,8.470983,-1
541,542,1580729636835,-0.2561,-0.2848,-1.2459999,-0.1657458,1.9439578000000002,8.314708,-1
542,543,1580729636844,-0.1707,-0.23179999,-1.6028,-0.016146496,2.0552115,7.893434,-1
543,544,1580729636854,-0.0446,-0.1266,-1.7347,0.09251195,2.1512957000000004,7.818208,-1
544,545,1580729636864,-0.042999998,-0.1116,-1.4663999,0.08451532,2.1751225,8.146606,-1
545,546,1580729636874,-0.1336,-0.0792,-1.2686,0.0004596867400000001,2.2526374,8.286868,-1
546,547,1580729636884,-0.0423,0.103999995,-1.2679,0.10150458,2.4031849999999997,8.2799635,-1
547,548,1580729636895,0.1577,0.22019999,-1.1302999,0.32642543,2.5446343,8.44997,-1
548,549,1580729636905,0.1577,0.22019999,-1.1302999,0.42522937,2.6519232,8.44952,-1
549,550,1580729636915,0.40489998,0.34219998,-1.1192,0.5552058000000001,2.6433232,8.4500475,-1
550,551,1580729636925,0.35200000000000004,0.3757,-0.8628,0.45104843,2.709834,8.747857000000002,-1
551,552,1580729636936,0.1583,0.457,-0.5766,0.28085902,2.7651496,8.970748,-1
552,553,1580729636946,0.106599994,0.40609998,-0.5834,0.30077878,2.7274363,8.922117,-1
553,554,1580729636956,0.266,0.37,-0.6673,0.4771357,2.6661349999999997,8.829998,-1
554,555,1580729636966,0.19659999,0.2138,-0.80939996,0.3553187,2.5505335,8.671253,-1
555,556,1580729636976,0.0335,0.118499994,-1.0697,0.20290379999999997,2.5006957,8.413013000000001,-1
556,557,1580729636987,-0.1301,0.0896,-1.1553999,0.09098924,2.4805843999999997,8.369172,-1
557,558,1580729636997,-0.306,0.0121,-0.8125,-0.17609833,2.3671662999999996,8.908096,-1
558,559,1580729637007,-0.42229998,0.0201,-0.38299999999999995,-0.22763112,2.4079158,9.257009,-1
559,560,1580729637017,-0.2871,0.0484,-0.1105,-0.02342487,2.4411473,9.485261999999999,-1
560,561,1580729637027,0.048699997,0.094299994,0.1625,0.39099228,2.4910137999999997,9.705250999999999,-1
561,562,1580729637037,0.28419998,0.17559999,0.1522,0.60514885,2.5943856,9.637936,-1
562,563,1580729637047,0.48299998,0.29369998,0.0149,0.82255197,2.7258563,9.481882,-1
563,564,1580729637057,0.7344,0.45029998,-0.1319,1.0565133,2.8589257999999997,9.425042999999999,-1
564,565,1580729637068,0.86079997,0.5196,-0.0045,1.0552780000000002,2.8921382,9.645856,-1
565,566,1580729637078,0.6724,0.5211,0.36769998,0.82572186,2.8454895000000002,10.070357000000001,-1
566,567,1580729637088,0.4315,0.3636,0.7308,0.472692,2.593112,10.351742999999999,-1
567,568,1580729637098,0.0502,0.122499995,0.8109,0.08683291,2.3957436000000003,10.271517999999999,-1
568,569,1580729637109,-0.262,-0.024899999,0.68619996,-0.05185841,2.3400736,10.071842,-1
569,570,1580729637119,-0.3058,-0.075399995,0.3557,-0.032283418,2.3173382,9.786549,-1
570,571,1580729637129,-0.26549998,-0.0929,0.1713,0.12638512,2.3381677000000005,9.713334,-1
571,572,1580729637139,-0.0642,-0.045599997,0.2697,0.29545408,2.354726,9.944202,-1
572,573,1580729637150,0.0525,-0.0523,0.5432,0.28458437,2.3791182,10.243659,-1
573,574,1580729637160,0.0348,-0.0082,0.84569997,0.22660639999999999,2.3558657000000003,10.477046000000001,d
574,575,1580729637170,-0.0425,-0.055299997000000004,0.98219997,0.16776649999999999,2.3392117000000003,10.48692,-1
575,576,1580729637180,-0.0716,-0.019,0.9141,0.18346289,2.3927364,10.410995,-1
576,577,1580729637191,0.0069999998,0.0614,0.7687,0.23778254,2.5732498,10.033008,-1
577,578,1580729637201,0.0481,0.1673,0.43799999999999994,0.26635975,2.6480924999999997,9.571626,-1
578,579,1580729637211,0.0716,0.2219,-0.048899997,0.28979415,2.6079466,9.132759,-1
579,580,1580729637221,0.1149,0.13939999,-0.4281,0.2581524,2.517168,9.000666,-1
580,581,1580729637231,-0.0404,-0.0094,-0.56259996,-0.19461029999999999,2.270096,9.123555999999999,-1
581,582,1580729637241,-0.42279997,-0.24249999,-0.3157,-0.45199656,2.0816722,9.299673,-1
582,583,1580729637251,-0.8247,-0.5221,-0.1478,-0.88901496,1.8510339,9.447721000000001,-1
583,584,1580729637261,-1.0203,-0.62619996,-0.009099999000000001,-0.8759618,1.8222845,9.619347,-1
584,585,1580729637271,-0.9571,-0.6569,0.091699995,-0.74091923,1.9047406999999998,9.2495575,-1
585,586,1580729637281,-0.81909996,-0.55939996,-0.3737,-0.56910175,2.0485363000000003,8.540271,-1
586,587,1580729637292,-0.6206,-0.44939998,-1.0726,-0.31575690000000006,2.1181982,7.938942999999999,-1
587,588,1580729637302,-0.3899,-0.4482,-1.6535,-0.20056707,2.000413,7.3757405,-1
588,589,1580729637312,-0.3021,-0.61179996,-2.2152998,-0.30352733,1.8080245,6.78715,-1
589,590,1580729637322,-0.4278,-0.85289997,-2.7870998,-0.46454218,1.4801146,6.1451782999999995,-1
590,591,1580729637333,-0.509,-1.4183999,-4.4614,-0.45708185,1.2377353000000002,4.9976087,-1
591,592,1580729637343,-0.4563,-1.3574,-5.2018,-0.40686107,1.3182187,4.250493,-1
592,593,1580729637354,-0.4563,-1.3574,-5.2018,-0.70526475,1.6182697,3.9425607000000005,-1
593,594,1580729637364,-0.7345,-1.0605,-5.5039,-1.1693473,1.993939,3.8070872000000002,-1
594,595,1580729637374,-1.5583999,-0.5236,-5.7148,-1.6251171,2.1912404999999997,3.6895510000000002,-1
595,596,1580729637384,-1.4359,-0.364,-6.3556,-1.3151542,2.2685923999999997,2.8589737,-1
596,597,1580729637394,-0.3733,-0.4879,-7.9943,-0.43109995,2.1622036000000002,1.4609994,-1
597,598,1580729637405,0.42729998,-0.8347,-9.719299000000001,0.4574649,1.7094313,-0.47835192,-1
598,599,1580729637415,0.42729998,-0.8347,-9.719299000000001,0.62829596,1.1361445,-0.6786986999999999,-1
599,600,1580729637425,0.44869998,-2.0342,-9.4646,0.48152184,0.5757385,-0.023309947999999997,-1
600,601,1580729637435,-0.0264,-2.1102,-8.4977,-0.051456182999999996,0.40496483,1.2039387,-1
601,602,1580729637446,-0.5979,-2.3632,-7.4273996,-0.5933023000000001,0.07802225,2.2212252999999995,-1
602,603,1580729637456,-1.3141999,-2.181,-7.2228,-1.2446785,0.35408327,2.1776414,-1
603,604,1580729637467,-1.1949999,-1.5206,-8.3042,-0.5615265,0.8763639999999999,0.6989249,-1
604,605,1580729637477,0.0196,-1.3615,-9.5341,0.5660563,0.8297537,-0.23929568,-1
605,606,1580729637487,0.98789996,-1.3519999999999999,-10.2961,1.5567386,0.5749819,-0.88801897,-1
606,607,1580729637497,1.8758999,-1.7148999,-10.3937,2.3028197,0.080809094,-0.5627426999999999,-1
607,608,1580729637507,2.4303,-2.2238,-9.198299,2.5793312000000004,-0.83458036,1.259647,-1
608,609,1580729637517,1.8030000000000002,-3.0514,-7.2862,1.4682298999999999,-1.8020581000000002,2.8642123,-1
609,610,1580729637527,0.2891,-3.7338998,-6.6254,0.037205893999999996,-2.5973449,2.9778411,-1
610,611,1580729637538,-0.9198,-4.3016,-7.0989,-0.860342,-3.2310135,2.3248177000000005,-1
611,612,1580729637548,-1.3130000000000002,-4.434,-8.0033,-0.9921189,-3.325594,1.3212641,-1
612,613,1580729637558,-1.1567999,-4.246299700000001,-9.0061,-0.6592960999999999,-3.4635480000000003,0.51454264,-1
613,614,1580729637568,-1.1567999,-4.246299700000001,-9.0061,-0.34500447,-3.5398848,0.28643270000000004,-1
614,615,1580729637579,0.2253,-3.9262998,-10.413199,0.5954092,-3.6608013999999995,-0.52905154,-1
615,616,1580729637588,0.3933,-4.3452997,-9.341599,0.47942454,-4.7263265,1.597124,-1
616,617,1580729637598,-0.17799999,-5.3299,-6.5448,-0.019699492,-5.8161864,4.0583253,-1
617,618,1580729637608,-0.60359997,-5.9075,-5.2286,-0.15941553,-6.8008356,4.7033324,-1
618,619,1580729637618,-0.5870000000000001,-6.3961,-5.031399700000001,0.36149573,-7.343294599999999,5.052771,-1
619,620,1580729637629,0.17359999,-6.4737,-4.2163,1.6086545,-7.547807000000001,6.691133,-1
620,621,1580729637640,1.3866,-6.2114,-2.0932,2.2887228,-7.6336823,9.011124,-1
621,622,1580729637650,1.61,-6.0785,0.3602,2.1826022000000003,-8.102285,11.01419,-1
622,623,1580729637660,1.3702999,-6.5413,2.8213,1.9695948,-9.151491,13.5931,-1
623,624,1580729637670,1.2443,-6.8903,4.8768,1.8743535,-9.6255045,15.407051999999998,-1
624,625,1580729637680,1.1862999,-6.8552,6.6011996,2.1950808,-9.963355,16.390762,-1
625,626,1580729637690,1.5583999,-6.848799700000001,7.1064997000000005,2.2734094,-10.397655,16.291815,-1
626,627,1580729637701,1.4620999,-6.9477997,7.3122997000000005,2.1333582000000004,-10.606744,17.542498000000002,-1
627,628,1580729637712,1.3450999,-6.8001,9.812999999999999,2.3588922,-10.484076,22.074846,-1
628,629,1580729637722,1.5755999,-6.2874,14.0145,2.7664904999999997,-10.316730499999998,25.599026000000002,-1
629,630,1580729637732,1.8622999,-5.882999999999999,16.8888,2.8657541,-10.323041,26.22011,-1
630,631,1580729637742,1.9612999,-5.615,17.638199,2.6964742999999998,-10.113778,25.277905,-1
631,632,1580729637752,1.8330000000000002,-5.1875,16.8335,2.1889038,-9.793501,23.83468,-1
632,633,1580729637762,1.2422999,-4.5346,15.079498999999998,1.4347683999999998,-8.960989,21.9582,-1
633,634,1580729637773,0.498,-3.5191,13.4347,0.55610603,-8.3101015,20.983482000000002,-1
634,635,1580729637783,-0.1752,-2.9085999,12.8145,0.39547426,-8.133305,20.850441,-1
635,636,1580729637793,-0.3398,-2.5500998,12.7013,0.38734353,-7.3410915999999995,20.438898000000002,-1
636,637,1580729637803,-0.3689,-1.7804999,12.3805,0.35119107,-7.2055316,20.079048,-1
637,638,1580729637814,-0.41779998,-1.5806999,12.062099,0.5415014,-7.2806234,19.293577,-1
638,639,1580729637824,0.3348,-1.1982,10.0743,1.1664742000000001,-6.847550999999999,17.765676000000003,-1
639,640,1580729637834,0.9123,-0.7659999999999999,8.872499000000001,1.6589999,-6.440862,16.551070000000003,-1
640,641,1580729637844,0.9123,-0.7659999999999999,8.872499000000001,1.870925,-6.081770400000001,15.6045065,-1
641,642,1580729637854,1.4854,0.3734,6.3282,2.0858476,-5.2862344000000006,13.802851,-1
642,643,1580729637864,1.4871,0.80609995,4.9077,1.9264321,-4.895281,12.374049000000001,-1
643,644,1580729637874,1.1276,1.0766,3.3955998,1.6218801999999999,-4.7085422999999995,11.314126,-1
644,645,1580729637884,0.6056,1.0955,2.2003,1.0841041999999999,-4.676297,10.125434,-1
645,646,1580729637894,0.6056,1.0955,2.2003,0.6238332,-4.8287983,10.255017,d
646,647,1580729637904,-0.4472,0.6584,3.6811,-0.08984960000000002,-5.2108172999999995,11.869475,-1
647,648,1580729637915,-0.4472,0.6584,3.6811,-0.58715403,-5.5863046999999995,12.549754,-1
648,649,1580729637925,-1.1377,-0.0752,4.3993998,-0.69439507,-5.9335504,12.169134,-1
649,650,1580729637935,-0.8537,-0.1512,3.5789999999999997,-0.35124853,-5.9255533,11.3137045,-1
650,651,1580729637946,-0.8537,-0.1512,3.5789999999999997,0.16483599999999998,-5.693871,10.566244000000001,-1
651,652,1580729637956,0.4346,0.3615,1.392,0.97360694,-5.335603,9.091194999999999,-1
652,653,1580729637966,0.6434,0.4438,0.2218,1.0258676,-5.2640834000000005,8.050322,-1
653,654,1580729637976,0.36339998,0.29459998,-0.34649998,0.7075536,-5.397297,7.6708016,-1
654,655,1580729637986,-0.0346,0.1828,0.0033999997999999997,0.30632374,-5.46601,8.193705,-1
655,656,1580729637996,-0.49699998,0.0402,0.7521,-0.21773829,-5.625435400000001,9.006958000000001,-1
656,657,1580729638007,-0.8656,-0.1677,1.1007999,-0.5294441999999999,-5.8672595,9.245019000000001,-1
657,658,1580729638017,-1.1545,-0.4649,1.1639,-0.732166,-6.0508084,9.137145,-1
658,659,1580729638027,-1.1855,-0.5198,0.7145,-0.7124186,-6.036012,8.683549000000001,-1
659,660,1580729638037,-0.9878,-0.3909,0.0863,-0.50050306,-5.875303700000001,8.143398,-1
660,661,1580729638047,-0.6471,-0.2033,-0.2086,-0.13975435,-5.574621,7.825755,-1
661,662,1580729638057,-0.4136,0.0132,-0.5919,0.06747818,-5.328057,7.35425,-1
662,663,1580729638067,-0.114199996,0.2678,-1.1424,0.34930444,-5.040474400000001,6.91229,-1
663,664,1580729638078,0.1171,0.45319998,-1.3984,0.47147578,-4.882208,6.834345,-1
664,665,1580729638087,0.0021,0.49429998,-1.2694,0.20587263,-4.894160299999999,7.098348,-1
665,666,1580729638097,-0.4746,0.2959,-0.8028,-0.3411929,-5.166668,7.654952000000001,-1
666,667,1580729638107,-0.90629995,0.015299999,-0.2929,-0.6405447,-5.371506,8.08067,-1
667,668,1580729638117,-0.9515,-0.1251,-0.114599995,-0.40221632,-5.457707,8.1045065,-1
668,669,1580729638128,-0.3381,-0.096999995,-0.2986,0.32255644,-5.301969000000001,7.848653,-1
669,670,1580729638138,0.4437,0.1697,-0.5004,1.0322168999999999,-4.9950137,7.768275,-1
670,671,1580729638148,1.0239999,0.44219998,-0.3653,1.5074469,-4.778999,8.04673,-1
671,672,1580729638158,1.3055999,0.5525,0.067099996,1.5676563000000001,-4.7145376,8.548919,-1
672,673,1580729638168,1.1378,0.55689996,0.57949996,1.2768853,-4.8102193,9.035132,-1
673,674,1580729638178,0.6584,0.3154,1.1015999,0.70888484,-5.127393700000001,9.574336,-1
674,675,1580729638189,0.046099997999999996,-0.037299998,1.5431,0.08938034,-5.491724,9.921294,-1
675,676,1580729638199,-0.3028,-0.2893,1.7056999,-0.028337771,-5.613886,9.983955,-1
676,677,1580729638210,-0.3355,-0.49989998,1.8045,0.01520797,-5.829373400000001,10.129235000000001,-1
677,678,1580729638221,-0.266,-0.5589,1.8311,0.2558827,-5.7726984,10.018547,-1
678,679,1580729638231,0.0178,-0.523,1.6789999,0.5803449,-5.665055000000001,9.9438095,-1
679,680,1580729638242,0.35999998,-0.4371,1.6449,0.8862568000000001,-5.550343499999999,10.046989,-1
680,681,1580729638252,0.6981,-0.33859998,1.7400999,1.3061711999999999,-5.334453599999999,10.320044000000001,-1
681,682,1580729638262,1.0661,-0.1602,1.9734999,1.4018722,-5.2453322,10.494667,-1
682,683,1580729638272,1.2317,-0.0121,2.4615998,1.3018807,-5.1797023,11.224658999999999,-1
683,684,1580729638282,1.0447999,-0.053999998,2.938,1.0615507,-5.314687,11.489372,-1
684,685,1580729638293,0.8021,-0.2386,3.1269999,0.76012075,-5.458646,11.566638000000001,-1
685,686,1580729638303,0.5166,-0.40879998,3.1952999,0.6942611,-5.618588,11.969217,-1
686,687,1580729638313,0.49519998,-0.6296,3.6845999,0.7266115,-5.7159457,12.854249000000001,-1
687,688,1580729638324,0.516,-0.7129,4.4095,0.65259236,-5.6602855000000005,13.517520000000001,-1
688,689,1580729638334,0.4858,-0.6989,5.7187,0.6673981,-5.622523999999999,14.208907,-1
689,690,1580729638344,0.7123,-0.6494,6.3178997,0.8770631,-5.5276084,14.838629999999998,-1
690,691,1580729638354,0.9165,-0.5563,6.6050997,1.0606697,-5.376189,15.164663000000001,-1
691,692,1580729638364,0.80149996,-0.6563,6.7170000000000005,0.9294004000000001,-5.3977375,15.322488,-1
692,693,1580729638375,0.80149996,-0.6563,6.7170000000000005,0.8218624,-5.3665648,15.37429,-1
693,694,1580729638385,0.45859998,-0.6849,6.5582,0.49557102,-5.2010584,15.260154,-1
694,695,1580729638395,0.0402,-0.7754,6.5165,0.08316499,-5.1819625,15.299207000000001,-1
695,696,1580729638405,-0.287,-0.9716,6.4239999999999995,-0.24841279999999996,-5.2614884,15.2225065,-1
696,697,1580729638416,-0.5031,-1.1578,6.1038,-0.42957723,-5.300082700000001,15.00653,-1
697,698,1580729638426,-0.5031,-1.1578,6.1038,-0.4516709,-5.3700128,14.621649,-1
698,699,1580729638436,-0.4601,-1.6276,5.1646,-0.37700057,-5.4962919999999995,14.151791000000001,-1
699,700,1580729638446,-0.3694,-1.9455999,4.8722,-0.33489135,-5.64842,13.921507,-1
700,701,1580729638457,-0.5078,-2.1137,4.5413,-0.50451577,-5.6125927,13.673658999999999,-1
701,702,1580729638467,-0.612,-2.1906,4.3879,-0.57609284,-5.4704924,13.649707999999999,-1
702,703,1580729638477,-0.56769997,-2.1963,4.383,-0.46382390000000007,-5.272836,13.668459,-1
703,704,1580729638488,-0.4525,-2.2223,4.2121,-0.36836230000000003,-5.156478400000001,13.395252,-1
704,705,1580729638498,-0.33299999999999996,-2.2817,3.5217998,-0.21742225,-4.9120975,12.261032,-1
705,706,1580729638509,-0.2817,-2.2567,2.2738,-0.18490899,-4.724028,11.49145,-1
706,707,1580729638519,-0.1591,-2.2186,1.0101,0.044905648,-4.506864,10.213492,-1
707,708,1580729638529,0.14209999,-2.363,0.2924,0.38128140000000005,-4.301959,9.714780000000001,-1
708,709,1580729638539,0.268,-2.2433,0.0133,0.36074874,-3.9350523999999996,9.599858,-1
709,710,1580729638549,0.0218,-2.0578,-0.102699995,-0.038019925,-3.6695642,9.523234,-1
710,711,1580729638559,-0.50119996,-2.1748,-0.4493,-0.64668345,-3.6365434999999997,8.782095,-1
711,712,1580729638570,-0.9608,-2.3868,-1.3658999,-0.9465812,-3.42571,7.6667223,-1
712,713,1580729638580,-1.1696,-2.2424,-2.5423,-0.9935171,-2.9273236000000002,6.6982484,-1
713,714,1580729638590,-1.1738,-2.0242999,-3.0812,-0.8561474,-2.555341,7.012415400000001,-1
714,715,1580729638600,-0.99179995,-1.7184999,-2.3888,-0.71269643,-2.0950127,8.094844,-1
715,716,1580729638610,-0.91749996,-1.5462999,-1.6235,-0.6360628,-1.9043002,8.177511,-1
716,717,1580729638620,-0.6958,-1.4319998999999999,-1.9340998999999999,-0.037857115,-1.5270027,7.152495399999999,-1
717,718,1580729638631,-0.1462,-1.3097,-2.8404,0.40982029999999997,-1.1754956,6.4917245,-1
718,719,1580729638641,0.3936,-0.9569,-3.5674,0.9741145,-0.36582443,5.847675,-1
719,720,1580729638651,0.8484,-0.4278,-4.0562997,1.2698941000000001,0.20822851,5.530616,-1
720,721,1580729638662,1.1422,-0.1223,-4.3046,1.1498585,0.532097,5.5165277,-1
721,722,1580729638673,0.9086,0.0407,-4.2714,0.6813707,0.6201844,5.466307,-1
722,723,1580729638683,0.5553,-0.005,-4.3342,0.4982621,0.58889705,4.9520707,-1
723,724,1580729638693,0.3744,-0.16309999,-4.8353,0.45669878,0.48783293,4.702624,-1
724,725,1580729638703,0.2085,-0.2846,-4.7453,0.3508559,0.7001029000000001,5.022518,-1
725,726,1580729638713,-0.0678,-0.26299998,-4.2042,0.10003932,0.83369935,5.5509377,-1
726,727,1580729638724,-0.0678,-0.26299998,-4.2042,-0.045125917,0.6801735,6.2054834,-1
727,728,1580729638734,-0.6139,-0.97529995,-2.9638999,-0.42467391,0.31568027,6.7695,-1
728,729,1580729638746,-1.2096,-1.354,-3.5686998,-1.1123652,-0.088480115,5.638048,-1
729,730,1580729638757,-1.3138,-1.7378999,-4.8503,-1.0926943999999998,-0.32806307,4.378813,-1
730,731,1580729638767,-1.2164,-1.9117,-5.7511997,-1.1077396000000002,-0.36306632,3.7837769999999997,-1
731,732,1580729638777,-1.3215,-1.9042,-5.9101996,-1.1980777,-0.324309,3.778807,-1
732,733,1580729638787,-1.3259999999999998,-1.9002999,-5.73,-1.2704113000000001,-0.29196809999999995,3.9466977,-1
733,734,1580729638798,-1.3931999,-1.8989999,-5.7974997,-1.3970741000000002,-0.25415888,3.877132,-1
734,735,1580729638808,-1.2707,-1.6638,-5.6797,-1.2914611999999999,0.06023811,4.252045,-1
735,736,1580729638818,-1.1746,-1.5508,-5.2585998,-1.2760328,0.08517612,4.581314599999999,-1
736,737,1580729638828,-1.2014999,-1.5044999,-4.9458,-1.3086611000000001,0.16559257,4.8017726,-1
737,738,1580729638838,-1.1108,-1.3508999,-4.7408,-1.2530868999999998,0.28703603,5.0620127,-1
738,739,1580729638849,-1.1482999,-1.3455,-4.369,-1.3412030000000001,0.27299646,5.6267476,-1
739,740,1580729638858,-1.2281,-1.3133999,-3.8497999,-1.2166376,0.35996345,6.2063646,-1
740,741,1580729638868,-0.99759996,-1.1989,-3.2807998999999994,-1.0115311,0.46048158,6.4919357,-1
741,742,1580729638878,-0.8451,-1.0627999,-3.2595,-0.7906324,0.62280846,6.263471,-1
742,743,1580729638888,-0.5482,-0.9687,-3.679,-0.49226704,0.6820984999999999,5.844237000000001,-1
743,744,1580729638899,-0.48099998,-0.8969,-3.9720998,-0.55591446,0.7779432,5.6495404,-1
744,745,1580729638909,-0.61509997,-0.8512,-3.9829998,-0.73088276,0.7122845999999999,5.795883,-1
745,746,1580729638919,-0.74469995,-0.9517,-3.8388,-0.80079347,0.7438019,5.857539,-1
746,747,1580729638929,-0.7414,-0.7479,-3.8629,-0.7336313,0.95470226,5.8207164,-1
747,748,1580729638940,-0.659,-0.5369,-3.679,-0.6278555,1.123982,6.3718133,-1
748,749,1580729638950,-0.6486,-0.4342,-3.0749,-0.76310873,1.0643471000000002,6.789486999999999,-1
749,750,1580729638960,-0.83529997,-0.4953,-2.9222,-0.94590116,0.9410265999999999,6.5042032999999995,-1
750,751,1580729638970,-0.95989996,-0.5369,-3.25,-0.83250225,1.0241149999999999,6.3645544,-1
751,752,1580729638980,-0.7434,-0.3694,-3.2839,-0.36220440000000004,1.2151243999999999,6.692589,-1
752,753,1580729638990,-0.3233,-0.203,-2.9169,-0.058696248,1.2617922,7.0199428,-1
753,754,1580729639001,0.1235,-0.06359999599999999,-2.3651,0.51108545,1.3380427,7.782294800000001,-1
754,755,1580729639011,0.4276,0.0286,-1.8637999,0.5598601,1.3489794,8.047716000000001,-1
755,756,1580729639021,0.4391,0.0876,-1.6768,0.3509325,1.2645788999999998,8.093676,-1
756,757,1580729639031,0.24319999,0.0554,-1.6359999,0.37186740000000007,1.3241372,8.14087,-1
757,758,1580729639041,0.3706,0.25849998,-1.6129999,0.77568305,1.6583487000000001,8.157064,-1
758,759,1580729639052,0.8192,0.7897,-1.4994999,1.3304962,2.1396406000000003,8.779594,-1
759,760,1580729639062,1.2054,1.1273999,-0.7862,1.7104273,2.2640147,9.762444,-1
760,761,1580729639072,1.5048,1.249,0.1337,1.7493091,2.1327837000000005,10.104948,-1
761,762,1580729639082,1.4117998999999999,1.1431999,0.34809998,1.4780461,1.9333561999999997,10.157267,-1
762,763,1580729639093,1.1001999,0.9784,0.39569998,1.0844488,1.7763445,10.226392,-1
763,764,1580729639103,0.5489,0.78859997,0.4524,0.60282165,1.4918175,10.280405,-1
764,765,1580729639113,0.0016,0.4879,0.7495,0.44938207,1.3204118999999999,10.524738000000001,-1
765,766,1580729639124,0.1548,0.43739998,1.1568999,0.59379077,1.2049443000000002,10.928228,-1
766,767,1580729639133,0.1548,0.43739998,1.1568999,0.6712384,1.1591192,11.275589,-1
767,768,1580729639143,0.273,0.48079997,1.5935,1.1716458,1.3803244,11.72862,-1
768,769,1580729639153,0.7326,0.7398,1.9423,1.7381330000000002,1.4918462,11.938668,-1
769,770,1580729639163,1.7441,0.98179996,2.0644,2.2076073,1.514074,11.85849,-1
770,771,1580729639174,1.8929,1.0059,2.0135,2.3597827000000002,1.4970082,11.803338,-1
771,772,1580729639184,1.6741999,0.80329996,2.0607,2.1458654,1.2613037,11.865203999999999,-1
772,773,1580729639195,1.194,0.5397,2.1471999,1.5374031000000001,0.8979693000000001,11.983908999999999,-1
773,774,1580729639208,0.5362,0.2324,2.3418999,0.87234175,0.5204324,12.148764,-1
774,775,1580729639218,-0.0689,-0.1416,2.2824,0.22143492,0.05661808,12.008857,-1
775,776,1580729639228,-0.4842,-0.41700000000000004,2.1353,-0.07755298,-0.252119,11.849661,-1
776,777,1580729639238,-0.552,-0.6004,1.9691999,0.07602069,-0.3074442,11.626147,-1
777,778,1580729639248,-0.2771,-0.5617,1.7344998999999999,0.5289366,-0.16847520000000002,11.375695,-1
778,779,1580729639259,0.1586,-0.35709998,1.4800999,0.70611715,-0.081345394,11.279917,-1
779,780,1580729639270,0.3276,-0.2393,1.3723999,0.88940763,0.055861514,11.155333,-1
780,781,1580729639280,0.30879998,-0.2366,1.2738999,0.77216834,-0.021720197000000004,10.913632000000002,-1
781,782,1580729639290,0.2083,-0.27269998,1.0869,0.62613165,-0.14007038,10.826187,-1
782,783,1580729639301,0.0685,-0.38889998,1.0174999,0.6592099,-0.2068303,10.76481,-1
783,784,1580729639311,0.1485,-0.4204,0.9486,0.8056776,-0.13821247,10.669348,-1
784,785,1580729639321,0.2811,-0.32,0.8605,0.8468004000000001,-0.0018004397,10.656707,-1
785,786,1580729639331,0.2749,-0.20199999,0.90989995,0.8010520000000001,0.10752839,10.758671000000001,-1
786,787,1580729639342,0.24249999,-0.12329999,0.95909995,0.71365404,0.22434628,10.610988,-1
787,788,1580729639352,0.14549999,0.0116,0.73359996,0.7024013000000001,0.35012805,10.177961999999999,-1
788,789,1580729639362,0.1692,0.113299996,0.302,0.82032055,0.42162849999999996,9.769789,-1
789,790,1580729639373,0.28309998,0.16489999,-0.021699998999999998,0.98995453,0.48668376,9.520485,d
790,791,1580729639383,0.4567,0.2171,-0.2769,1.2636021000000002,0.5542864000000001,9.463915,-1
791,792,1580729639393,0.72819996,0.28079998,-0.33589998,1.3977062,0.6440307,9.5233965,-1
792,793,1580729639403,0.8734,0.3761,-0.2774,1.4289075,0.7913603,9.560871,-1
793,794,1580729639414,0.914,0.6209,-0.2981,1.408777,0.89773947,9.504004,-1
794,795,1580729639424,0.8659,0.57229996,-0.3967,1.3584604,0.84291226,9.39863,-1
795,796,1580729639434,0.8659,0.57229996,-0.3967,1.4010965,0.7489638000000001,9.368942,-1
796,797,1580729639444,1.1681,0.5214,-0.62259996,1.6485037,0.7909006,9.176305000000001,-1
797,798,1580729639454,1.1681,0.5214,-0.62259996,2.191863,0.92569417,9.046051,-1
798,799,1580729639466,2.3023999,0.8332,-0.6824,2.8733199000000003,1.124116,9.125739,-1
799,800,1580729639476,2.8200998,0.98319995,-0.6051,3.2592363,1.2378597,9.194500999999999,-1
800,801,1580729639486,3.3897,1.2929,-0.5769,3.977698,1.5907363,9.234703999999999,-1
801,802,1580729639496,3.7517998,1.4066,-0.57809997,4.2174916,1.6124374,9.179072,-1
802,803,1580729639506,3.8135998,1.3605,-0.7161,4.214226200000001,1.5342045,9.074378999999999,-1
803,804,1580729639517,3.8291998,1.2628,-0.7754,4.239011,1.4458871000000002,9.070433999999999,-1
804,805,1580729639528,3.9483,1.3425,-0.6678,4.449701,1.6877016,9.175988,-1
805,806,1580729639538,4.4010997000000005,1.7990999,-0.5798,5.0807834000000005,2.1358864,9.357077,-1
806,807,1580729639548,5.1238,2.2052999,-0.1294,5.887418299999999,2.5109622000000003,10.110733,-1
807,808,1580729639558,5.8132997,2.4937,0.62479997,6.5096907999999996,2.6426146,10.782738,-1
808,809,1580729639569,6.6768,2.5934,1.4865999,7.3396645000000005,2.6726282,11.626771000000002,-1
809,810,1580729639579,7.2969,2.5716,2.2314,7.658017,2.3414620999999998,12.362653,-1
810,811,1580729639589,7.2379,2.0669,2.7505,7.210492599999999,1.6201084,12.851174,-1
811,812,1580729639599,6.5920000000000005,1.3508999,3.2598999,6.2390594,0.87177676,13.4550495,-1
812,813,1580729639609,5.4919,0.63809997,3.9067,5.1062384000000005,0.25991455,14.056176,-1
813,814,1580729639620,4.4424,0.15079999,4.495,4.1735916,-0.21611023,14.658451999999999,-1
814,815,1580729639630,3.5553,-0.3408,5.0639,3.219895,-0.7490882,15.137485,-1
815,816,1580729639640,2.5019999,-0.8859999999999999,5.4270000000000005,2.1436724999999996,-1.2467469999999998,15.338894,-1
816,817,1580729639650,1.472,-1.5087999,5.6233,1.0071065000000001,-2.2660449000000003,15.69564,-1
817,818,1580729639660,0.5338,-2.4164999,5.9663997,0.061080877,-2.9121822999999996,16.11133,-1
818,819,1580729639671,-0.3895,-3.0288,6.3876,-0.98428506,-3.3420184,16.481245,-1
819,820,1580729639682,-1.4409,-3.4487,6.7302,-2.1400237,-3.7529782999999997,16.743513,-1
820,821,1580729639691,-2.5576,-3.8867998,6.9553,-3.1777377,-3.8967165999999995,16.947166,-1
821,822,1580729639701,-3.4434998,-4.0049,7.1417,-3.9007387000000002,-3.7859702000000004,17.043316,-1
822,823,1580729639711,-4.1798997,-3.9824,7.27,-4.52031,-3.858486,17.212156,-1
823,824,1580729639722,-4.8241997,-4.1724997,7.3992,-5.4832296,-4.071656,16.978136,-1
824,825,1580729639732,-5.8296,-4.4983997,7.069,-6.880782000000001,-4.634533,16.203545000000002,-1
825,826,1580729639742,-6.9814,-5.1147,6.3971995999999995,-7.956544999999999,-5.064761,15.274318,-1
826,827,1580729639752,-8.0125,-5.6741,5.4725,-8.550632,-5.266401,14.525276999999999,-1
827,828,1580729639762,-8.6795,-6.0459,4.579799700000001,-9.079569000000001,-5.3738623,14.031879,-1
828,829,1580729639772,-9.1343,-6.285,4.229,-9.587705,-5.42166,13.898514000000002,-1
829,830,1580729639782,-9.5899,-6.4329996,4.0871997,-10.054737,-5.1748943,13.337179,-1
830,831,1580729639792,-10.0014,-6.3327,3.4106,-10.510947,-4.9709663,12.316730999999999,-1
831,832,1580729639802,-10.4106,-6.3111997,2.3671,-10.877480499999999,-4.8239527,11.062304,-1
832,833,1580729639813,-10.7272,-6.3841996,1.1043999,-11.179734,-4.5970783,9.489916000000001,-1
833,834,1580729639823,-10.938499,-6.3104997,-0.505,-11.097288,-4.243186,7.627572,-1
834,835,1580729639833,-10.795799,-6.257000000000001,-1.9721999,-10.491296,-3.9313172999999995,6.899189,-1
835,836,1580729639843,-9.5104,-5.8041,-3.0268998,-9.867797999999999,-3.4038844,6.482703,-1
836,837,1580729639853,-8.939799,-5.515,-3.4391,-9.309451,-2.9335961,6.0209384,-1
837,838,1580729639863,-8.939799,-5.515,-3.4391,-8.840695,-2.7643166,5.5865917000000005,-1
838,839,1580729639874,-8.1297,-5.5546,-4.4031997,-8.514691000000001,-2.616288,4.9568305,-1
839,840,1580729639884,-7.9479999999999995,-5.577999999999999,-5.2865,-8.327003999999999,-2.451969,4.009282,-1
840,841,1580729639894,-7.8073997,-5.8795,-6.2144,-8.146462,-2.5804515,3.0262133999999996,-1
841,842,1580729639904,-7.5339,-6.2872,-6.7668,-7.819012599999999,-2.7987835,2.40193,-1
842,843,1580729639914,-7.5339,-6.2872,-6.7668,-7.4439850000000005,-2.994543,2.1094449,-1
843,844,1580729639924,-6.7788997,-7.1277,-7.4374,-6.7160807,-3.3877666,1.4702793,-1
844,845,1580729639934,-6.7788997,-7.1277,-7.4374,-6.2245607000000005,-3.5845029999999998,1.0379822,-1
845,846,1580729639945,-5.2381997,-7.8465,-8.7657995,-5.146662,-3.7477589,0.14398728,-1
846,847,1580729639954,-4.0864997,-7.7205997,-9.031199,-3.8883655,-3.5216407999999997,-0.18555063,-1
847,848,1580729639965,-2.7264,-7.3364997,-8.9907,-2.087993,-2.9442167,-0.21550688,-1
848,849,1580729639975,-1.2155,-6.836,-9.2893,-0.76602,-2.507342,-0.51946515,-1
849,850,1580729639985,0.32209998,-6.3978996,-9.710199000000001,0.9405382,-2.0190973000000003,-0.96900046,-1
850,851,1580729639995,1.8659999,-5.8336,-9.9205,2.6479487,-1.4347111000000001,-1.2011136,-1
851,852,1580729640005,3.1738,-5.3164997000000005,-9.9316,4.4175889999999995,-0.8339484,-1.2184476,-1
852,853,1580729640015,4.388999999999999,-4.933399700000001,-9.7443,5.5207515,-0.5549185000000001,-1.0621063,-1
853,854,1580729640026,5.7135997000000005,-4.3789997000000005,-9.585199000000001,7.334789999999999,0.101772726,-0.88748264,-1
854,855,1580729640036,7.040899799999999,-3.6313,-9.6044,8.771924,0.7748786,-0.9291322,-1
855,856,1580729640046,8.0737,-2.9531,-9.5685,9.89401,1.364695,-0.76821315,-1
856,857,1580729640056,8.8593,-2.1659,-8.9976,10.601516,1.8940433,-0.24893951,-1
857,858,1580729640066,8.8593,-2.1659,-8.9976,11.181506,2.2682571,0.542325,-1
858,859,1580729640076,9.956799499999999,-1.2013999,-6.8822,12.312325999999999,2.5264575000000002,2.595803,-1
859,860,1580729640087,10.8806,-1.0706999,-5.5014,13.462922,2.4544206,3.9789526,-1
860,861,1580729640097,12.0803995,-0.8071,-4.1366997,14.565691000000001,2.5595167,5.108068,-1
861,862,1580729640107,13.3503,-0.2647,-2.8881,16.127333,3.19715,6.609816599999999,-1
862,863,1580729640117,14.3024,0.86079997,-1.7693,16.956474,4.09215,7.691841999999999,-1
863,864,1580729640128,14.7785,1.6258,-0.9,17.400953,4.4283155999999995,8.49593,-1
864,865,1580729640138,15.318999,1.8251,-0.4913,18.022488,4.139182,8.708966,-1
865,866,1580729640148,15.752998999999999,1.5867,-0.5771,18.367865,3.6555724,8.553717,-1
866,867,1580729640159,16.2918,1.1323,-0.5652,19.30444,3.1882339,9.083152,-1
867,868,1580729640169,17.1779,1.1319,0.1732,19.661951000000002,3.1607868999999997,9.458782000000001,-1
868,869,1580729640179,17.6139,1.0677999,1.2824,19.975916,2.88123,11.061423,-1
869,870,1580729640189,16.7694,0.945,2.3472,18.280804,2.6534936,11.829004,-1
870,871,1580729640199,14.896199,0.9159,2.3432,16.200405,2.5306807,11.100774000000001,-1
871,872,1580729640210,12.907599000000001,0.7467,1.2172999,14.069947,1.9027104,9.360955,-1
872,873,1580729640220,11.2706995,0.196,-0.3313,12.998983,1.4348738,8.049402,-1
873,874,1580729640230,10.121799000000001,-0.3597,-1.8960999,12.269776,0.90079445,7.033886999999999,-1
874,875,1580729640240,9.5267,-1.1360999,-2.7303,11.815826,-0.15736608,6.5403557,-1
875,876,1580729640250,9.3227,-1.9345,-2.8665,11.566436999999999,-0.91706544,6.513828299999999,-1
876,877,1580729640260,8.9302,-2.6492999,-2.8988,10.827106,-1.6994715,6.5368794999999995,-1
877,878,1580729640270,7.964299700000001,-3.3411998999999994,-2.8973,9.224131,-2.3568425,6.507785299999999,-1
878,879,1580729640280,6.593499700000001,-3.7329998,-2.937,7.6107745,-2.71513,6.619805,-1
879,880,1580729640291,4.9891996,-4.0294,-2.807,6.2664495,-3.0950900000000003,6.710890299999999,-1
880,881,1580729640300,3.3281,-4.4512,-2.779,4.6241803,-3.5880558,6.5738363,-1
881,882,1580729640310,1.7361,-4.8926997000000005,-3.0686,3.1805532000000003,-4.1252284,6.0952163,-1
882,883,1580729640320,0.3536,-5.4193,-3.6081998,1.6784598999999998,-4.9793744,5.4739304,-1
883,884,1580729640331,-0.87829995,-6.178,-4.0973997,0.5000625,-5.87901,5.115183,-1
884,885,1580729640341,-2.0939,-6.9996,-4.4129,-0.8480837,-6.487731,4.889859700000001,-1
885,886,1580729640351,-3.4424998999999996,-7.4535,-4.6358,-2.1412400000000003,-6.7102675000000005,4.777965,-1
886,887,1580729640362,-4.7467,-7.4470997,-4.717,-3.364926,-6.1860523,5.061447599999999,-1
887,888,1580729640371,-5.8718,-6.6383,-4.2893,-3.9192028,-5.5170164,6.246903400000001,-1
888,889,1580729640382,-6.2263,-5.8933,-2.9355,-3.875753,-5.4107428,7.719959700000001,-1
889,890,1580729640392,-6.2595,-5.7792997,-1.0541999,-4.2551284,-6.0032597,9.784222,-1
890,891,1580729640402,-6.7797,-6.2639,0.5209,-5.312005999999999,-6.779517,10.571368,-1
891,892,1580729640412,-8.0553,-6.8276,1.0504,-6.845003599999999,-7.1273565,10.258339999999999,-1
892,893,1580729640423,-10.2064,-6.9395,0.5391,-9.360342,-7.276898399999999,10.1227045,-1
893,894,1580729640433,-12.1339,-6.9385,0.78139997,-11.102632,-7.7731585999999995,11.63831,-1
894,895,1580729640444,-14.995199,-7.5049,4.1219,-12.847822,-8.449827,14.149713,-1
895,896,1580729640454,-15.880199,-7.973799700000001,5.7714996,-13.531559,-9.1927,15.495733,-1
896,897,1580729640464,-16.183899,-8.377,6.0892,-13.708432,-9.550450999999999,15.512386,-1
897,898,1580729640475,-16.300299,-8.2713995,5.4523997,-13.830585000000001,-9.623187,14.862323000000002,-1
898,899,1580729640485,-16.2519,-7.5846995999999995,4.6945,-13.822876,-9.112886,14.079610999999998,-1
899,900,1580729640495,-15.948799,-6.1492,4.5529,-13.434201000000002,-7.600249300000001,14.109337,-1
900,901,1580729640506,-14.7381,-4.821000000000001,6.0048,-11.893791,-6.4590005999999995,16.000134,-1
901,902,1580729640516,-13.3173,-3.9866998,7.2763,-10.726119,-6.027403,16.743332000000002,-1
902,903,1580729640526,-12.3894,-3.7201,7.4708996,-10.141742,-6.122548,16.72552,-1
903,904,1580729640536,-11.6305,-4.0806,6.9005,-9.327945,-6.829307000000001,15.721669,-1
904,905,1580729640546,-11.044,-4.3971,5.8278,-9.010261999999999,-7.1616607000000005,14.815109,-1
905,906,1580729640557,-10.7851,-4.5137,5.5688996,-8.684094,-7.409307000000001,15.104329000000002,-1
906,907,1580729640567,-9.9579,-4.4385,6.6661,-7.779153999999999,-7.330508999999999,16.424713,-1
907,908,1580729640577,-8.8663,-3.9461,8.0813,-6.682878,-6.8883004,17.700325,-1
908,909,1580729640587,-7.3287997,-3.5295,9.054299,-5.009494,-6.7307043,18.298614999999998,-1
909,910,1580729640597,-5.3771996,-3.3237997999999997,8.9726,-3.9037843,-6.6949252999999995,18.076012,-1
910,911,1580729640607,-3.8787,-3.1227,7.7342,-2.054637,-6.6781273,16.18421,-1
911,912,1580729640618,-2.5806,-3.3616998,6.2525,-0.89861095,-7.034087700000001,14.889809,-1
912,913,1580729640628,-1.4455,-3.5238,5.5534,0.17981412,-7.0674534,14.785048000000002,-1
913,914,1580729640638,0.0198,-3.2284,6.3788,1.7486962,-6.756935,16.084688,-1
914,915,1580729640648,1.7926999,-2.8759,8.2787,3.0766451,-6.5350212999999995,17.759718,-1
915,916,1580729640659,3.2312999,-2.5582,10.355499,4.746141000000001,-6.177816,20.060844,-1
916,917,1580729640669,4.3585,-2.2639,11.1494,5.770265599999999,-5.994142500000001,19.845968,-1
917,918,1580729640680,5.4902997000000004,-2.1197,10.4002,6.952982,-5.802434,18.754078,-1
918,919,1580729640690,6.8388995999999995,-1.8434,9.3953,8.259546,-5.371353,18.2838,-1
919,920,1580729640700,8.3875,-1.3448,9.4449,10.38574,-4.558426,19.369926,-1
920,921,1580729640710,10.2734995,-0.7069,10.5421,11.259136,-4.185917,20.038605,-1
921,922,1580729640721,11.3186,-0.1726,11.399099,11.803443,-3.5596127999999996,20.54522,-1
922,923,1580729640731,11.5225,0.0678,11.3045,11.794805,-3.5076492,20.108335,-1
923,924,1580729640741,11.5103,0.0234,10.1375,11.610873,-3.3458872000000004,18.253757,-1
924,925,1580729640751,11.3909,0.037299998,8.232999999999999,11.537811,-3.237813,16.224289000000002,-1
925,926,1580729640761,11.5357,-0.06,6.1348,11.804669,-3.1038240000000004,14.679799,-1
926,927,1580729640771,12.1112995,0.066199996,4.2897997000000005,12.696633,-2.3440576,12.470017,-1
927,928,1580729640781,12.7809,0.4107,2.7621999,13.261914,-1.9910755,11.3680525,-1
928,929,1580729640792,13.3631,0.5431,1.7121998999999999,13.539057999999999,-1.6834973000000002,10.749103999999999,-1
929,930,1580729640802,13.5653,0.7148,0.86609995,13.283577,-1.2823917999999999,9.735581,-1
930,931,1580729640812,13.2511,0.7891,-0.0412,12.856796000000001,-1.2413936,9.132978999999999,-1
931,932,1580729640822,12.6403,0.60679996,-0.8739,11.810089999999999,-1.3050888999999999,8.038886999999999,-1
932,933,1580729640832,11.755799,0.3234,-1.8191998999999999,10.894796000000001,-1.5176653,7.297460000000001,-1
933,934,1580729640843,10.879399000000001,-0.07809999599999999,-2.4751,10.27033,-1.7896944,7.2897506,-1
934,935,1580729640852,10.3319,-0.5069,-2.3418,9.865863000000001,-1.9004884999999998,7.896039,-1
935,936,1580729640862,9.9355,-0.72929996,-1.7242,9.668362,-1.9548081999999998,8.288229,-1
936,937,1580729640872,9.656199,-1.035,-1.1330999,9.313789,-2.2163508,8.827058000000001,-1
937,938,1580729640882,9.3227,-1.3795998999999999,-0.9418,8.777000000000001,-2.342889,8.627123,-1
938,939,1580729640892,8.6552,-1.6380000000000001,-1.2386999,8.089701,-2.4231333999999998,8.281132000000001,-1
939,940,1580729640904,7.8342996,-1.8652999,-1.6897999,7.1787553,-2.5775688,7.782755,-1
940,941,1580729640914,6.5681,-2.4315,-2.2314,6.579467299999999,-2.7317647999999997,7.5813355,-1
941,942,1580729640925,5.9065,-2.4208998999999998,-2.0184999,5.8007965,-2.5855749,7.913066400000001,-1
942,943,1580729640935,5.2507997,-2.3776999,-1.2254,5.1733723,-2.4348936,8.776072000000001,-1
943,944,1580729640946,4.7701,-2.2612,-0.3724,4.773425,-2.1748257,9.623053,-1
944,945,1580729640956,4.7701,-2.2612,-0.3724,4.533105,-1.7809796000000002,10.215991,-1
945,946,1580729640966,3.9692998,-1.9707999,0.22,4.0222206,-1.7397418000000002,9.947237,-1
946,947,1580729640976,3.3579,-2.2117,-0.0888,3.5038183,-1.8920035,9.669567,-1
947,948,1580729640986,2.7545,-2.6548998,-0.3179,2.8552193999999997,-2.2618885,9.46857,-1
948,949,1580729640997,1.7566998999999999,-3.0377,-0.2915,1.8423574,-2.4287355,9.521778,-1
949,950,1580729641009,1.7566998999999999,-3.0377,-0.2915,1.0145956,-2.2528767999999997,9.620792999999999,-1
950,951,1580729641017,-0.3378,-2.8551,-0.0336,-0.29855695,-2.078646,9.785725,-1
951,952,1580729641027,-1.5604,-2.8506,0.23799999,-1.7057346000000002,-1.9548560000000001,10.147354,-1
952,953,1580729641037,-2.4104,-2.9582,0.5406,-2.3694456,-2.1897464,10.310668,-1
953,954,1580729641047,-3.1748998,-3.6546998,0.4041,-3.2918456,-2.9160802,10.020749,-1
954,955,1580729641058,-4.1789,-4.3784,0.1815,-4.287383,-3.4041815000000004,9.89038,-1
955,956,1580729641069,-5.017299700000001,-4.7643,0.096499994,-5.571078,-3.6565397000000006,9.63827,-1
956,957,1580729641079,-6.6334995999999995,-4.9709997,-0.17629999,-7.263989,-3.4621690000000003,9.427159,-1
957,958,1580729641089,-7.9479,-4.7276998,-0.37379998,-7.849524499999999,-3.2551662999999995,9.223346000000001,-1
958,959,1580729641099,-8.101,-4.5948997,-0.8289,-7.866006,-3.0356178,8.219878999999999,-1
959,960,1580729641112,-7.949,-4.3979,-2.0195,-8.059802000000001,-2.7462835,6.6736364,-1
960,961,1580729641122,-8.1287,-4.302,-3.1887,-8.38913,-2.786755,6.1996417,-1
961,962,1580729641132,-8.3125,-4.3855,-3.4835,-8.218518,-2.554814,6.297402,-1
962,963,1580729641142,-7.9571996,-4.1112,-3.3748998999999995,-7.716435400000001,-2.1745958,6.278181,-1
963,964,1580729641153,-6.8392,-3.5498,-3.5003,-6.285104799999999,-1.3229784,5.935427,-1
964,965,1580729641163,-6.1463,-3.1274,-3.7134,-6.3803177,-1.1156502000000001,5.8017445,-1
965,966,1580729641173,-6.2426,-2.9799,-3.8395,-6.5370707999999995,-1.0898596999999999,5.690691999999999,-1
966,967,1580729641183,-6.3953,-2.9856,-3.9480998999999994,-6.4345989999999995,-0.89659023,5.595843299999999,-1
967,968,1580729641193,-6.2549,-2.8319,-4.0196,-5.7788367,-0.6065854,5.3317337,-1
968,969,1580729641204,-5.5726,-2.5686998,-4.2894,-4.889755,-0.15679148,4.895683,-1
969,970,1580729641214,-3.6873,-1.6355,-4.6984,-3.9428,0.34789667,4.9208026,d
970,971,1580729641224,-3.6873,-1.6355,-4.6984,-3.1557686,0.86291814,5.446014,-1
971,972,1580729641234,-1.7752999,-0.4346,-3.2552,-2.0609384,1.5122927,6.3676667,-1
972,973,1580729641245,-0.97139996,-0.1612,-2.8487,-1.2681416,1.7602936999999999,6.774681,-1
973,974,1580729641256,-0.97139996,-0.1612,-2.8487,-0.5125411,2.059368,7.1257095,-1
974,975,1580729641266,0.1981,0.3715,-2.2407,-0.11635819999999998,2.2452058999999998,7.46537,-1
975,976,1580729641276,0.0459,0.424,-1.8527,-0.34213140000000003,2.291069,7.943769500000001,-1
976,977,1580729641286,-0.1365,0.4933,-1.5425999,-0.49377057,2.2524552000000004,8.13362,-1
977,978,1580729641296,-0.2314,0.313,-1.5454999,-0.58826494,2.0389310000000003,8.05058,-1
978,979,1580729641307,-0.3092,0.14729999,-1.7042999,-0.6435614000000001,1.9431531000000002,7.901890299999999,-1
979,980,1580729641317,-0.37019998,0.20529999,-1.8826,-0.6984365,2.0235602999999998,7.718226400000001,-1
980,981,1580729641327,-0.306,0.275,-1.9926,-0.5130583,2.040712,7.646008,-1
981,982,1580729641338,-0.0277,0.2907,-1.9172,-0.2547239,2.060881,7.7916419999999995,-1
982,983,1580729641348,0.2914,0.3446,-1.5981,0.06959466,2.048249,8.262045,-1
983,984,1580729641358,0.52489996,0.3786,-1.055,0.34742740000000005,2.0885293000000003,9.028267,-1
984,985,1580729641369,0.6724,0.4588,-0.3658,0.46723324,2.203604,9.651257000000001,-1
985,986,1580729641380,0.77459997,0.62149996,0.1856,0.44281238,2.3001766,10.097775,-1
986,987,1580729641389,0.67329997,0.77379996,0.5316,0.32520920000000003,2.3653467,10.342483,-1
987,988,1580729641399,0.5604,0.7944,0.71169996,0.12918155,2.2076168,10.410669,-1
988,989,1580729641409,0.36699998,0.67289996,0.70629996,0.08466855,2.0998588,10.393564,-1
989,990,1580729641420,0.43809998,0.6078,0.70129997,0.26007733,2.0316045,10.444303,-1
990,991,1580729641430,0.5998,0.5836,0.80429995,0.27903944,1.9397056000000001,10.641652,-1
991,992,1580729641440,0.5309,0.5445,1.0734999,0.104798995,1.9093471999999998,11.032136999999999,-1
992,993,1580729641450,0.37449998,0.5383,1.4993,0.00884897,1.8520396000000001,11.7499,-1
993,994,1580729641460,0.3426,0.5335,2.1801,-0.21023005,1.7191709,12.629702,-1
994,995,1580729641471,0.071499996,0.4391,3.0767999,-0.5894236999999999,1.5924601999999999,13.344532999999998,-1
995,996,1580729641481,-0.2832,0.34739998,3.7194998,-0.84239507,1.3542945,13.787479000000001,-1
996,997,1580729641491,-0.5589999999999999,0.1091,4.1068997000000005,-1.1724023000000001,1.1418332,13.774310999999999,-1
997,998,1580729641502,-0.899,-0.0614,3.9687,-1.3256983,1.0317955,13.489889999999999,-1
998,999,1580729641512,-0.982,-0.16139999,3.7138,-1.3442581,1.0583329,13.415593,-1
999,1000,1580729641522,-1.0177,-0.1313,3.6754,-1.4883123999999999,1.2519376,13.441948000000002,-1
1000,1001,1580729641532,-1.1745,0.040999997,3.7063,-1.4680000000000002,1.3665816000000002,13.502023999999999,-1
1001,1002,1580729641542,-1.1484,0.1602,3.7963998,-1.3765893,1.5294543999999999,13.70328,-1
1002,1003,1580729641553,-1.0856,0.2862,3.9652998,-1.2844031,1.6110871,13.85333,-1
1003,1004,1580729641563,-1.0155,0.3488,4.125,-1.4248181999999998,1.5492591999999998,13.781667,-1
1004,1005,1580729641573,-1.2028999,0.0788,3.9169998,-1.4452838,1.4106733,13.639566,-1
1005,1006,1580729641583,-1.0027,0.0023,3.5983998999999995,-1.2282159,1.372366,13.31293,-1
1006,1007,1580729641594,-0.71639997,0.12019999,3.3098,-0.9507471,1.5287458,13.022761000000001,-1
1007,1008,1580729641604,-0.71639997,0.12019999,3.3098,-0.6463866,1.6848285,13.116222,-1
1008,1009,1580729641615,-0.3182,0.20989999,3.3414,-0.5953421999999999,1.6961578000000002,12.957362,-1
1009,1010,1580729641625,-0.4138,0.15259999,2.8002,-0.69958574,1.6986287,12.383989,-1
1010,1011,1580729641635,-0.32479998,0.1444,2.4177,-0.5829211,1.7331243000000003,12.073815,-1
1011,1012,1580729641645,-0.1453,0.048,2.4194999,-0.44585782,1.7096133000000002,12.099309,-1
1012,1013,1580729641655,-0.030399999,-0.0692,2.296,-0.32391635,1.6406124,11.867483,-1
1013,1014,1580729641665,-0.030399999,-0.0692,2.296,-0.18037915,1.4884274,11.04814,-1
1014,1015,1580729641676,0.047599997000000005,-0.5941,0.5069,-0.3018897,1.3016508999999998,9.932978,-1
1015,1016,1580729641686,0.012499999,-0.7141,-0.364,-0.3574639,1.3132386999999999,9.086704,-1
1016,1017,1580729641696,0.029199999,-0.8301,-0.9798,-0.36296096,1.2706125,8.498716,-1
1017,1018,1580729641706,-0.0221,-0.852,-1.4094,-0.46618938,1.3794719,8.091626,-1
1018,1019,1580729641717,-0.0661,-0.8574,-1.4965,-0.55173904,1.4123971000000002,8.066505000000001,-1
1019,1020,1580729641727,-0.1153,-0.98499995,-1.4078,-0.6043156999999999,1.3508661,8.0584135,-1
1020,1021,1580729641737,-0.1126,-1.1323999,-1.4756,-0.5038454000000001,1.3202011999999999,8.051853,-1
1021,1022,1580729641747,0.2715,-1.1177,-1.4145,0.018013973,1.4865023000000002,7.959619,-1
1022,1023,1580729641757,0.7313,-1.0186,-1.8714,0.39583817,1.657343,7.288917,-1
1023,1024,1580729641768,1.0551,-0.94629997,-2.4845998,0.6785455,1.8703696,6.7816149999999995,-1
1024,1025,1580729641777,1.1273,-0.62909997,-2.7754,0.5425165,2.3751247,6.5970889999999995,-1
1025,1026,1580729641787,0.9131,-0.2828,-2.8128998,0.38394377,2.5665459999999998,6.574449,-1
1026,1027,1580729641797,0.5654,-0.3515,-2.8518,-0.15645629,2.5300007,6.4530153,-1
1027,1028,1580729641807,0.3439,-0.48700000000000004,-3.1064,-0.29852822,2.4503121,6.160529599999999,-1
1028,1029,1580729641817,0.2214,-0.7333,-3.4877,-0.50859547,2.1820180000000002,5.719623599999999,-1
1029,1030,1580729641828,0.0123,-1.0385,-3.6239,-0.7028514,1.9567618000000002,5.7422247,-1
1030,1031,1580729641838,-0.0963,-1.1637,-3.4180998999999996,-0.75571537,1.9644616999999998,5.870535,-1
1031,1032,1580729641848,-0.30609998,-0.8926,-3.4292,-1.0071257,2.4723294,5.764625,-1
1032,1033,1580729641858,-0.3454,-0.5076,-3.5203,-0.96418333,2.8306932000000002,5.764203500000001,-1
1033,1034,1580729641868,-0.17600000000000002,-0.3096,-3.418,-0.82399803,2.990109,5.8203807,-1
1034,1035,1580729641878,0.0932,-0.2306,-3.5342,-0.37492242,3.1322,5.5692005,-1
1035,1036,1580729641889,0.4804,-0.1743,-3.6525998,-0.10554599,3.1873242999999998,5.668349299999999,-1
1036,1037,1580729641899,0.65959996,-0.099199995,-3.4115,-0.04255933,3.2392304,5.980169999999999,-1
1037,1038,1580729641909,0.72889996,-0.113,-2.8992999,-0.058418524000000006,3.1777568,6.687264,-1
1038,1039,1580729641919,0.65029997,-0.1686,-2.3309,-0.15472288,3.156209,7.028926400000001,-1
1039,1040,1580729641929,0.4743,-0.1519,-1.8030000000000002,-0.40402633,3.2269623,7.6681776,-1
1040,1041,1580729641939,0.25869998,-0.0471,-1.4418,-0.65239125,3.41575,7.8067546000000005,-1
1041,1042,1580729641951,0.0709,0.14289999,-1.3836,-0.7476709,3.4843773999999996,7.8618307000000005,-1
1042,1043,1580729641961,0.0633,0.1331,-1.3637999,-0.6632992,3.3587012,7.8463449999999995,-1
1043,1044,1580729641971,0.0984,-0.027199998,-1.4021,-0.6873560999999999,3.2668786,7.704225,-1
1044,1045,1580729641981,0.11199999599999999,-0.11009999,-1.7344998999999999,-0.62079734,3.1154308,7.214629700000001,-1
1045,1046,1580729641992,0.1373,-0.2286,-2.0189,-0.6481392,3.1737537000000002,7.207821000000001,-1
1046,1047,1580729642002,0.12239999,-0.0843,-1.9629999,-0.52528787,3.3940873,7.490442,-1
1047,1048,1580729642012,0.28059998,0.1665,-1.4789,-0.42652225,3.5838134,8.18794,-1
1048,1049,1580729642022,0.3213,0.3439,-0.9553,-0.24698584,3.6541742999999993,8.566741,-1
1049,1050,1580729642033,0.53389996,0.4014,-0.6055,-0.08779058599999999,3.6108105000000004,8.794334,-1
1050,1051,1580729642042,0.66319996,0.3831,-0.42069998,-0.016462531000000002,3.5492125,8.995322,-1
1051,1052,1580729642052,0.7072,0.3369,-0.2656,-0.07890331,3.3913004,9.169074,-1
1052,1053,1580729642062,0.6354,0.23279999,-0.1006,-0.41004056,3.3955907999999995,9.333288,-1
1053,1054,1580729642072,0.22299999,0.2766,0.10349999,-0.7238534000000001,3.457438,9.564003,-1
1054,1055,1580729642083,-0.126,0.3818,0.4152,-1.0170280999999999,3.3544300000000002,9.949152999999999,-1
1055,1056,1580729642092,-0.3346,0.2439,0.6678,-1.1480676,3.0637448,9.842236999999999,-1
1056,1057,1580729642102,-0.38369998,0.0165,0.45049998,-0.64800507,2.9094722,9.261854,-1
1057,1058,1580729642112,0.0955,-0.0765,-0.059899997,-0.16035405,3.0262518,9.083075,-1
1058,1059,1580729642122,0.5882,0.0748,-0.2568,0.07817548,3.2840593,9.318204,-1
1059,1060,1580729642132,0.85929996,0.445,0.0648,0.22074538,3.52845,9.890399,-1
1060,1061,1580729642143,0.9145,0.6723,0.6207,-0.02957318,3.5500839,10.297213000000001,-1
1061,1062,1580729642152,0.7122,0.7256,0.9216,-0.11384908,3.4345398,10.419613,-1
1062,1063,1580729642162,0.58559996,0.6107,1.0668,-0.3827658,3.1890671000000004,10.5187435,-1
1063,1064,1580729642172,0.3324,0.3919,1.1258,-0.74022967,2.9297560000000002,10.472746,d
1064,1065,1580729642182,-0.0442,0.1521,1.0404999,-1.1601822,2.6639805,10.276468,-1
1065,1066,1580729642192,-0.48299998,-0.098,0.8109999999999999,-1.6896935000000002,2.324224,9.879214,-1
1066,1067,1580729642202,-1.0009,-0.4351,0.3583,-2.0710707,2.1089182,9.122474,-1
1067,1068,1580729642214,-1.2939999,-0.59349996,-0.2883,-2.184958,1.9387383000000002,8.829471,-1
1068,1069,1580729642224,-1.4156,-0.7662,-0.5811,-2.5743032,1.7735193,8.559338,-1
1069,1070,1580729642234,-2.1868,-1.0536,-1.2554,-2.9412097999999998,1.6745621,8.143523,-1
1070,1071,1580729642244,-2.198,-1.0553,-1.5491999,-2.9551822999999997,1.6694767,7.8600106,-1
1071,1072,1580729642254,-2.1136,-1.1014,-1.7751,-2.8757331,1.6125714,7.6247473,-1
1072,1073,1580729642265,-2.1136,-1.1014,-1.7751,-2.8972616,1.4276338,7.153913,-1
1073,1074,1580729642275,-2.1382,-1.3330000000000002,-2.4027,-3.2474952,1.2849872,6.306451999999999,-1
1074,1075,1580729642285,-3.0555,-1.3296,-3.7141,-4.1161113,1.3691098999999998,5.506099,-1
1075,1076,1580729642295,-3.8205,-1.5539,-4.3208,-4.877889,1.0218549000000001,4.887179,-1
1076,1077,1580729642305,-3.8205,-1.5539,-4.3208,-5.2213707000000005,0.76909417,4.4960713,-1
1077,1078,1580729642316,-5.034,-2.6676998,-6.0537996,-5.9753532,-0.07097372,3.1207175,-1
1078,1079,1580729642326,-5.4217,-3.2616,-7.1411996,-6.3226748,-0.6543928000000001,2.0459986,-1
1079,1080,1580729642336,-5.8339,-3.5181,-8.1812,-6.6677465,-0.80584997,1.2121365,-1
1080,1081,1580729642346,-6.2953,-3.4115,-9.1946,-7.1775199999999995,-0.7194959,0.06146395,-1
1081,1082,1580729642356,-6.5285997,-3.4424998999999996,-9.7329,-7.389483500000001,-0.79294044,-0.3956562,-1
1082,1083,1580729642366,-6.8032,-3.6155998999999994,-9.7877,-7.688548,-1.22156,-0.22407812,-1
1083,1084,1580729642376,-6.864,-4.1408997,-9.2317,-7.5351367,-1.8783088,0.5696380999999999,-1
1084,1085,1580729642386,-6.611399700000001,-4.6953998,-8.406099000000001,-7.1039314,-2.3731902000000002,1.3426586,-1
1085,1086,1580729642397,-5.9754,-4.8764997,-7.8661,-6.328622,-2.5132222,1.7247541000000002,-1
1086,1087,1580729642407,-4.7332997,-4.7216997,-7.4923997,-4.904646400000001,-2.4113827000000003,2.0653725,-1
1087,1088,1580729642418,-3.4571998,-4.5439997000000005,-7.4817,-3.085427,-2.2994103,2.383514,-1
1088,1089,1580729642428,-2.3107,-4.2731,-6.6986,-1.5884475,-2.0075380000000003,4.1045427000000005,-1
1089,1090,1580729642438,-0.84389997,-3.7742998999999995,-4.5752997,-0.29567435,-1.6392716,6.462103400000001,-1
1090,1091,1580729642448,-0.0137,-3.2524,-2.3151999,0.35104743,-1.3717721999999999,8.5295925,-1
1091,1092,1580729642458,0.64559996,-2.8816,-0.4438,1.5790813999999997,-1.3685737,10.056211,-1
1092,1093,1580729642468,2.0126998,-2.8233,0.6001,3.0015533,-1.6657706,10.355171,-1
1093,1094,1580729642479,3.0254998,-2.9619,0.5905,3.5688739999999997,-1.7907001,10.415199000000001,-1
1094,1095,1580729642489,3.6053998,-2.7437,1.1722,4.524572,-1.6169863000000002,11.850666,-1
1095,1096,1580729642499,4.3749,-2.4019999999999997,2.9029999,4.9877067,-1.4825758999999998,13.107507,-1
1096,1097,1580729642509,4.7942,-1.7810999,5.1755,5.6787205,-0.9308752,16.196592000000003,-1
1097,1098,1580729642519,5.4860997000000005,-1.2665,7.2166,6.9869413,-0.5107215,17.988144000000002,-1
1098,1099,1580729642530,7.1454997,-0.5434,8.5371,9.129072,-0.0071155676,18.210892,-1
1099,1100,1580729642540,9.2859,-0.079799995,8.1259,11.138746000000001,0.12089760599999999,17.491310000000002,-1
1100,1101,1580729642551,11.0447,0.2598,7.5989,12.54171,0.78505874,17.677551,-1
1101,1102,1580729642561,12.174399000000001,1.2947999,8.396,13.249407000000001,1.8041363999999998,19.745260000000002,-1
1102,1103,1580729642571,12.4369,2.2,10.4005995,12.980212,2.1859446,21.787916,-1
1103,1104,1580729642581,12.2058,2.6034,12.3349,13.299579999999999,2.2658150000000004,22.843605,-1
1104,1105,1580729642591,12.735,2.7378,13.0743,14.337782,2.0813754,22.415829000000002,-1
1105,1106,1580729642601,13.7971,2.6179,12.4796,15.359167999999999,1.9494547999999998,21.685910999999997,-1
1106,1107,1580729642612,14.8061,2.5045,11.7954,16.13897,1.63863,20.969807,-1
1107,1108,1580729642622,15.402598999999999,2.1657999,11.011399,15.902842499999998,1.4665921999999998,19.796515,-1
1108,1109,1580729642632,15.011398999999999,2.0093,9.7347,15.141160999999999,1.2269901,17.925933999999998,-1
1109,1110,1580729642642,14.3882,1.7436,8.151999,14.500397,0.9451063,16.745094,-1
1110,1111,1580729642652,13.5796995,1.3313,6.666599799999999,13.650637,0.6512515999999999,15.279479,-1
1111,1112,1580729642663,12.743199,0.9104,5.2012997,12.775039,0.24627715,14.012803,-1
1112,1113,1580729642673,11.828099,0.406,3.9626,11.552147999999999,-0.41000226,12.32082,-1
1113,1114,1580729642683,10.129,-1.0777999,0.9292,10.862608,-1.1253036,10.724692,-1
1114,1115,1580729642694,10.129,-1.0777999,0.9292,10.237865,-1.7429214,9.163922,-1
1115,1116,1580729642704,9.5048,-1.7946,-0.63,9.469575,-2.185188,7.852838,-1
1116,1117,1580729642714,8.7304,-2.3507,-1.9427999,8.707224,-2.336923,6.919262400000001,-1
1117,1118,1580729642724,6.7763995999999995,-2.8472998,-3.7900998999999995,7.524727,-2.4953616000000003,5.986184,-1
1118,1119,1580729642734,5.6858997,-3.2782,-4.1005,6.203281,-2.9289227,5.622553,-1
1119,1120,1580729642744,5.6858997,-3.2782,-4.1005,5.2732964,-3.2810237,5.329723,-1
1120,1121,1580729642755,3.6246998,-4.2363,-5.2721995999999995,4.357217299999999,-3.6733087999999996,4.501530000000001,-1
1121,1122,1580729642764,2.7552,-4.6881,-6.2023997,3.4648025000000002,-4.0710526,3.5680597,-1
1122,1123,1580729642774,1.7369999999999999,-4.8615,-7.0849,2.4133074,-4.2149057,2.6887457,-1
1123,1124,1580729642784,0.8197,-4.9797,-7.8016,1.4592947,-4.3176746,1.96744,-1
1124,1125,1580729642794,-0.1511,-5.1475,-7.9897,0.46235865,-4.4734893,1.7886601999999998,-1
1125,1126,1580729642804,-0.9228,-5.0646996,-7.864,-0.34224632,-4.4136434,1.9143078000000002,-1
1126,1127,1580729642814,-1.6011,-4.8564,-7.5509996,-1.0078632,-4.223955999999999,2.2254104999999997,-1
1127,1128,1580729642824,-2.3911,-4.8008,-7.1484,-1.7704259999999998,-4.196777,2.630423,-1
1128,1129,1580729642834,-3.3546,-4.8726,-7.4013995999999995,-2.6740646,-4.296874,2.37455,-1
1129,1130,1580729642844,-4.4432,-4.9976,-7.9860997000000005,-3.7025370000000004,-4.4422016,1.7876642,-1
1130,1131,1580729642854,-5.4582,-5.1078997,-8.4809,-4.770926,-4.5785947,1.2143295,-1
1131,1132,1580729642865,-6.187,-5.08,-8.7212,-5.4066152999999995,-4.6295147000000005,1.0572219999999999,-1
1132,1133,1580729642875,-7.1003,-5.2941,-8.316,-6.113498,-4.884708,1.4411466,-1
1133,1134,1580729642885,-8.2135,-5.5214996,-7.3524,-7.1665163,-5.229453599999999,2.3959734,-1
1134,1135,1580729642896,-9.1802,-5.7356,-6.2293997,-8.057675999999999,-5.583901,3.5148318,-1
1135,1136,1580729642906,-10.1693,-6.0931,-4.7871,-9.1098995,-6.2479277,5.278592,-1
1136,1137,1580729642917,-11.1297,-6.8202,-3.0849,-10.131811,-7.403705,7.311049499999999,-1
1137,1138,1580729642928,-12.0605,-7.5817,-1.5464,-10.998742,-8.205982,8.59119,-1
1138,1139,1580729642938,-12.9978,-7.861399700000001,-0.6635,-11.791041,-8.353933999999999,9.156682,-1
1139,1140,1580729642948,-13.745999,-7.3410997,-0.34829998,-12.355996000000001,-7.8233414,9.492194999999999,-1
1140,1141,1580729642958,-13.9787,-6.5197,0.3028,-12.33441,-7.304345599999999,10.364796,-1
1141,1142,1580729642968,-13.8806,-6.0827,1.4190999,-12.300824,-7.3032823,11.422774,-1
1142,1143,1580729642978,-14.0786,-6.1096,2.3146,-12.522892,-7.6968703,12.117647999999999,-1
1143,1144,1580729642989,-14.2829,-6.5025997,2.6941,-12.5675955,-8.470322,12.188239,-1
1144,1145,1580729642999,-14.1776,-6.9781,2.625,-12.305536,-8.891864,12.050677,-1
1145,1146,1580729643010,-13.8557,-7.1180997,2.4991999,-11.889711,-9.065252000000001,11.983122999999999,-1
1146,1147,1580729643019,-13.5954,-6.9526997,2.6113,-11.759648,-9.008643,12.190000999999999,-1
1147,1148,1580729643029,-13.401198999999998,-6.678,3.3156,-11.316071,-8.910836,13.418629000000001,-1
1148,1149,1580729643039,-12.5584,-6.374,5.4979,-10.062408,-8.819971,16.311121,-1
1149,1150,1580729643049,-11.409699,-6.1066,7.9413996,-9.063327000000001,-8.812089,17.948786,-1
1150,1151,1580729643059,-10.042,-5.9164,9.580999,-7.5885277,-8.830305000000001,19.069452,-1
1151,1152,1580729643069,-8.3298,-5.7525997,9.8713,-5.658551999999999,-8.846029,18.42844,-1
1152,1153,1580729643079,-8.3298,-5.7525997,9.8713,-4.916263,-8.725304,17.55326,-1
1153,1154,1580729643089,-6.2044,-5.312,8.4758,-3.8323987,-8.686308,17.730127,-1
1154,1155,1580729643099,-5.0417,-5.1252,9.005099000000001,-2.6101202999999997,-8.493124,18.789494,-1
1155,1156,1580729643111,-3.6639998,-4.6741,10.4937,-1.3075694,-8.008385,20.490822,-1
1156,1157,1580729643120,-2.2828,-4.117,12.158199,-0.046955082999999995,-7.760105599999999,21.946901,-1
1157,1158,1580729643130,-1.0224999,-3.8528998,13.4144,0.83951247,-7.6746229999999995,22.417294000000002,-1
1158,1159,1580729643140,0.17359999,-3.6818,13.196,1.7052749,-7.6220465,21.93536,-1
1159,1160,1580729643150,1.2366999,-3.6852,12.3834,3.286607,-7.512593300000001,21.096957999999997,-1
1160,1161,1580729643160,2.3846998,-3.451,12.2273,4.348694,-7.1421432000000005,21.378918,-1
1161,1162,1580729643170,3.8909,-2.9411,12.741099,5.906735,-6.397604,22.423203,-1
1162,1163,1580729643181,5.1335,-2.3332999,13.6699,6.4416285,-5.8875337,23.181877,-1
1163,1164,1580729643191,5.6193,-1.9575,14.285398999999998,6.636736999999999,-5.7888827,23.238935,-1
1164,1165,1580729643201,5.8855,-1.976,14.0162,6.5769777000000005,-5.816991000000001,22.184328,-1
1165,1166,1580729643211,5.8093,-2.1457,12.8425,6.360599,-5.832084,21.130047,-1
1166,1167,1580729643221,5.6731997000000005,-2.316,11.5617,6.526019,-5.813189,20.016676,-1
1167,1168,1580729643231,6.000099700000001,-2.4134998,10.6482,6.9799123,-5.4736720000000005,19.160452,-1
1168,1169,1580729643242,6.5256996,-2.2208,9.702,7.3399425,-5.0868839999999995,18.424387,-1
1169,1170,1580729643252,6.987,-1.9418,8.6074,7.853718799999999,-4.418566,16.799318,-1
1170,1171,1580729643262,7.5028996,-1.6256,7.0225,8.267092,-3.9651332000000004,14.681120000000002,-1
1171,1172,1580729643272,7.8573,-1.5442,5.1751,8.20854,-3.9272473,12.857754,-1
1172,1173,1580729643282,7.8328996,-1.7792,3.2840998,7.9051657,-4.034517299999999,11.506064,-1
1173,1174,1580729643292,7.4494,-2.1955,1.5674,7.2803655,-4.171571,9.842908,-1
1174,1175,1580729643303,6.9635997000000005,-2.5692,0.1542,6.736996,-4.1199902999999996,8.930162,-1
1175,1176,1580729643313,6.4358,-2.7856998,-0.78849995,6.446991400000001,-3.7822065,8.443324,-1
1176,1177,1580729643323,6.1705,-2.694,-1.3103,6.5232134,-3.1743092999999996,7.767901400000001,-1
1177,1178,1580729643333,6.263999999999999,-2.3371,-2.0109,6.459403,-2.5507536,6.724594000000001,-1
1178,1179,1580729643343,6.2242,-1.6927999,-4.1485,6.462266400000001,-2.0749779999999998,5.658532599999999,-1
1179,1180,1580729643353,6.9307,-1.4064,-5.2137,7.149383,-1.5671487,4.6029773,-1
1180,1181,1580729643363,6.9307,-1.4064,-5.2137,8.218767,-1.0323702,3.6093260999999996,-1
1181,1182,1580729643373,8.0292,-1.0617,-6.2058,8.953816,-0.45778096,3.2052326,-1
1182,1183,1580729643383,8.8066,-0.65139997,-6.6064,9.273605,-0.17415424,3.3088824999999997,-1
1183,1184,1580729643394,9.182099000000001,-0.51519996,-6.5049996,9.045016,-0.023989901,3.6325786,-1
1184,1185,1580729643404,9.0042,-0.47309998,-6.1671,8.383211,-0.101743996,4.0603557,-1
1185,1186,1580729643414,8.4018,-0.6525,-5.7402,7.683721,-0.37048835,4.382078599999999,-1
1186,1187,1580729643424,7.9911,-1.4800999,-5.4705,8.071141,-0.71716875,4.267291,-1
1187,1188,1580729643434,9.1470995,-1.3317,-5.6566,9.065099,-0.45162305,4.1227480000000005,-1
1188,1189,1580729643444,10.5152,-1.022,-5.881,10.414212,-0.029372066000000002,3.8818822,-1
1189,1190,1580729643455,10.8691,-1.0018,-6.2328,10.728035,0.11235510000000001,3.5177047,-1
1190,1191,1580729643465,10.245299000000001,-1.3500999,-6.8395996,9.854161,-0.26150426,2.7052945999999998,-1
1191,1192,1580729643476,10.245299000000001,-1.3500999,-6.8395996,9.462986,-0.5156057,1.876154,-1
1192,1193,1580729643486,10.1538,-2.2735,-9.1326,10.1339855,-1.0201023,0.61111516,-1
1193,1194,1580729643498,10.9957,-2.5449998,-8.5672,10.918441,-1.3773651000000002,1.7632338,-1
1194,1195,1580729643508,10.9957,-2.5449998,-8.5672,11.134789999999999,-1.5037885,2.4471613999999997,-1
1195,1196,1580729643518,11.929,-2.6358,-5.1865,11.568907000000001,-1.008409,5.715142,-1
1196,1197,1580729643528,12.1149,-2.0632,-3.1518998,11.73495,-0.47506708,7.792542500000001,-1
1197,1198,1580729643538,12.267099,-1.5407,-1.3426,11.811766,-0.26421452,8.769913,-1
1198,1199,1580729643549,12.352799000000001,-1.5696,-0.8153,11.883227,-0.6870018,8.629307,-1
1199,1200,1580729643559,12.454599,-2.0309,-1.4519,11.823267999999999,-1.0326766,7.6265089999999995,-1
1200,1201,1580729643569,12.2918,-2.3511999,-2.5468,11.676003999999999,-1.2572336000000002,6.861313000000001,-1
1201,1202,1580729643579,12.049299000000001,-2.7356,-2.9766998,11.411387,-1.6150903,6.794725,-1
1202,1203,1580729643590,11.3933,-3.3497,-2.4764,10.125472,-2.545927,7.73105,-1
1203,1204,1580729643601,10.084499000000001,-3.9555998,-1.5466,8.163931,-3.2973904999999997,9.499264,-1
1204,1205,1580729643611,8.3854,-4.6119,0.127,6.28431,-4.1910596,10.986656,-1
1205,1206,1580729643622,6.4525,-5.5209,1.4182,4.4971440000000005,-4.9857144,11.244263,-1
1206,1207,1580729643632,4.7177997000000005,-6.2479,1.4167,2.9698157000000003,-5.4814095,10.502692,-1
1207,1208,1580729643642,3.1594,-6.7335997,0.5742,1.0961996,-6.0910597,9.433116,-1
1208,1209,1580729643653,1.5611,-7.2976,-0.30609998,-0.41806590000000005,-6.6043286,8.915078,-1
1209,1210,1580729643663,0.0425,-7.8237,-0.81409997,-2.2117633999999997,-7.064149400000001,8.75119,-1
1210,1211,1580729643673,-1.7534,-8.2852,-0.9808,-4.0875344,-7.4929223,9.231228,-1
1211,1212,1580729643683,-5.5397997000000005,-9.3213,0.4535,-6.048021299999999,-8.181409,10.189282,-1
1212,1213,1580729643694,-7.9603996,-9.9899,1.4678999,-8.490558,-8.901633,11.211673,-1
1213,1214,1580729643704,-7.9603996,-9.9899,1.4678999,-10.63943,-9.497961,11.880794999999999,-1
1214,1215,1580729643714,-11.357699,-10.431399,2.3511,-11.846558,-9.416769,12.10449,-1
1215,1216,1580729643724,-11.357699,-10.431399,2.3511,-12.354464,-8.414316,11.76934,-1
1216,1217,1580729643734,-11.502299,-8.1474,0.9361,-11.917072000000001,-7.1241389999999996,10.688281,-1
1217,1218,1580729643745,-10.4667,-7.1984,-0.20099999,-10.853164999999999,-6.159381,9.552874000000001,-1
1218,1219,1580729643755,-10.4667,-7.1984,-0.20099999,-10.410745,-5.3641224,9.501159,-1
1219,1220,1580729643765,-10.0102,-5.8595,0.6882,-10.424536,-4.7421284,10.839997,-1
1220,1221,1580729643775,-9.9576,-5.4273996,1.9502,-10.297653,-4.2399015,11.971306,-1
1221,1222,1580729643786,-9.4977,-4.6143,2.3992999,-9.577334,-3.383055,11.926839999999999,-1
1222,1223,1580729643796,-8.4807,-3.9462,1.4678999,-8.60887,-2.7630715,10.682621000000001,-1
1223,1224,1580729643806,-8.4807,-3.9462,1.4678999,-8.186484,-2.2862424999999997,9.979397,-1
1224,1225,1580729643816,-7.3079996,-2.4064,-0.616,-7.653812400000001,-1.2697793,9.000733,-1
1225,1226,1580729643826,-6.974,-1.8808,-1.1135,-7.206011,-0.6745807,8.571663000000001,-1
1226,1227,1580729643839,-6.4754,-1.5006,-1.1508,-6.6434026,-0.34653676,8.693433,-1
1227,1228,1580729643847,-5.9670000000000005,-1.2735,-0.8362,-6.2483015,-0.17942148,9.075969,-1
1228,1229,1580729643857,-5.6969,-1.2819999999999998,-0.4242,-5.9555097,-0.27233565,9.462058,-1
1229,1230,1580729643867,-5.3052,-1.3353,-0.081199996,-5.5368023,-0.22090821,9.775545,-1
1230,1231,1580729643877,-4.9693,-1.1725999,0.1343,-5.364276,-0.028452694,9.9318285,-1
1231,1232,1580729643887,-4.9358997,-0.95339996,0.124699995,-5.350131,0.19103815,9.845178,-1
1232,1233,1580729643897,-4.6398997,-0.583,-0.109799996,-4.8416122999999995,0.6464057,9.450785,-1
1233,1234,1580729643907,-3.9092998999999997,-0.18100000000000002,-0.6773,-4.0652685,1.0175071,8.758708,-1
1234,1235,1580729643918,-3.2333,0.019299998999999998,-1.4600999,-3.4123025,1.0699208999999998,7.964695,-1
1235,1236,1580729643928,-2.8191,-0.1134,-1.8805,-3.1314912,0.8982374,7.869511,-1
1236,1237,1580729643938,-2.6160997999999998,-0.3759,-1.7330999,-2.9918517999999996,0.5809674,8.328709,-1
1237,1238,1580729643948,-2.5588,-0.5972,-1.1162,-2.9559674,0.4923915,8.940562,d
1238,1239,1580729643958,-2.5588,-0.5972,-1.1162,-2.8445127,0.5084327000000001,9.532926,-1
1239,1240,1580729643969,-2.3458,-0.4976,0.0369,-2.7151970000000003,0.6393476,9.919044,-1
1240,1241,1580729643979,-2.2841,-0.3725,0.30969998,-2.6490883999999997,0.72187096,10.139367,-1
1241,1242,1580729643989,-2.1643,-0.29209998,0.4066,-2.3858027,0.7702338000000001,10.051969999999999,-1
1242,1243,1580729643999,-1.8046999,-0.2608,0.1415,-1.9589933000000002,0.7830093000000001,9.528855,-1
1243,1244,1580729644009,-1.3874999,-0.2572,-0.4757,-1.5619101999999998,0.7913986,8.968114,-1
1244,1245,1580729644019,-0.9967,-0.2837,-0.8673,-1.2035748,0.7475463999999999,8.838080999999999,-1
1245,1246,1580729644030,-0.76949996,-0.3245,-0.84749997,-1.288502,0.7458034,9.078669,-1
1246,1247,1580729644039,-0.99039996,-0.2895,-0.46539998,-1.6163542,0.66116357,9.626319,-1
1247,1248,1580729644049,-1.3486999,-0.47559997,0.073,-2.0036306,0.42427170000000003,9.992229,-1
1248,1249,1580729644059,-1.7272999,-0.7019,0.27809998,-2.3943932,0.20122786,9.984865,-1
1249,1250,1580729644069,-2.0876,-0.90389997,0.1601,-2.6518657,0.04631344,9.825038000000001,-1
1250,1251,1580729644080,-2.4304,-1.1007,-0.15349999,-2.9661093,-0.17991947,9.297969,-1
1251,1252,1580729644089,-2.5172,-1.1908,-0.624,-2.8042613999999997,-0.1209838,9.015406,-1
1252,1253,1580729644099,-2.2466,-1.0791,-0.71239996,-2.5750022,-0.022275653,9.154996,-1
1253,1254,1580729644109,-1.9911,-0.9675,-0.3701,-2.3086233,0.026182989,9.609061,-1
1254,1255,1580729644119,-1.8103,-1.0052999,-0.0186,-2.272471,-0.09359413400000001,9.88338,-1
1255,1256,1580729644129,-1.8728,-1.0799,0.1955,-2.5178385,-0.2099236,9.98432,-1
1256,1257,1580729644139,-2.1448998,-1.1575,0.2627,-2.710849,-0.22245964,10.056192999999999,-1
1257,1258,1580729644149,-2.356,-1.1315,0.45749998,-2.99733,-0.22130086,10.490203999999999,-1
1258,1259,1580729644159,-2.665,-1.1299,0.88769996,-3.3955428999999997,-0.21884918,10.837257000000001,-1
1259,1260,1580729644169,-3.0899,-1.0967,1.1221,-3.6857586,-0.17897137,10.919839,-1
1260,1261,1580729644180,-3.2544,-1.0419999,1.1315,-3.6572196000000003,-0.08336610000000001,10.794335,-1
1261,1262,1580729644190,-3.2122998,-1.0019,0.9256,-3.6394355000000003,-0.08517612,10.642456,-1
1262,1263,1580729644200,-3.1269999,-0.993,0.6123,-3.3972763999999995,-0.10327628,10.195114,-1
1263,1264,1580729644210,-2.8803,-1.0704,0.37739998,-3.2259187999999996,-0.17196113,10.1884,-1
1264,1265,1580729644220,-2.8262,-1.1225,0.5344,-3.372578,-0.24464911,10.61183,-1
1265,1266,1580729644230,-3.0469999999999997,-1.2089,0.94589996,-3.8163671000000003,-0.35658282,11.102103999999999,-1
1266,1267,1580729644241,-3.5039999999999996,-1.3030000000000002,1.4355999,-4.101909,-0.44589612,11.40997,-1
1267,1268,1580729644251,-3.8246,-1.4476,1.7587,-4.3470945,-0.61550134,11.609158500000001,-1
1268,1269,1580729644261,-4.0677,-1.5977,1.8077999,-4.591934999999999,-0.7924041999999999,11.5057,-1
1269,1270,1580729644271,-4.2518997,-1.7643,1.7200999,-4.660342,-0.8580244,11.456533,-1
1270,1271,1580729644282,-4.2516,-1.7791,1.6819998999999999,-4.328994799999999,-0.801483,11.399186,-1
1271,1272,1580729644291,-3.8567,-1.7564,1.6148,-3.759615,-0.64898187,11.195124,-1
1272,1273,1580729644301,-3.2951998999999996,-1.5748999,1.3809999,-3.3128376000000004,-0.44893196,11.079886,-1
1273,1274,1580729644312,-2.7196,-1.3872,1.3235999,-2.8456235,-0.34623986,11.112074,-1
1274,1275,1580729644322,-2.3195,-1.3297,1.3543,-2.6165272999999996,-0.28219977,11.043725,-1
1275,1276,1580729644332,-2.1067,-1.2399,1.1987,-2.4518923999999997,-0.1798237,10.674452,-1
1276,1277,1580729644342,-1.9425,-1.153,0.84749997,-2.1315386000000003,-0.08155608,10.292874000000001,-1
1277,1278,1580729644352,-1.5411999,-1.0519999,0.47700000000000004,-1.7792080000000001,-0.053639695,9.984098,-1
1278,1279,1580729644362,-1.2186999,-1.0636,0.19479999,-1.728537,-0.035970487,9.927902,-1
1279,1280,1580729644373,-1.1898999,-1.0572,0.1771,-1.7058208,0.0042999859999999996,9.918267,-1
1280,1281,1580729644383,-1.1643,-1.0490000000000002,0.159,-1.755716,-0.080847405,9.748117,-1
1281,1282,1580729644393,-1.2195,-1.0597,-0.083,-1.7971452,-0.016529568,9.662663,-1
1282,1283,1580729644403,-1.2195,-1.0597,-0.083,-1.66307,0.19917843,9.291905999999999,-1
1283,1284,1580729644413,-0.7129,-0.7619,-1.9217999,-1.3724139,0.30165026,7.8176622,-1
1284,1285,1580729644424,-0.3277,-1.0461999,-3.0756997999999998,-1.0445423,-0.0034955344,6.6634082999999995,-1
1285,1286,1580729644434,-0.3277,-1.0461999,-3.0756997999999998,-0.69336087,-0.11441411,6.6303296000000005,-1
1286,1287,1580729644444,0.7994,-0.9738,-1.7917,0.10542148,0.0483533,8.2937155,-1
1287,1288,1580729644454,1.2844,-0.57089996,-0.089999996,0.58108234,0.43973824,9.907427,-1
1288,1289,1580729644464,1.2844,-0.57089996,-0.089999996,0.99534625,0.8266029,10.450527000000001,-1
1289,1290,1580729644475,2.34,0.45119998,0.4703,1.6471246,1.355214,10.053713,-1
1290,1291,1580729644485,2.34,0.45119998,0.4703,2.1062272,1.5837932,9.462785,-1
1291,1292,1580729644495,3.8049,0.93579996,-1.4252,3.0812037,1.6669581000000002,8.218078,-1
1292,1293,1580729644505,3.8049,0.93579996,-1.4252,3.2860706,1.4466437,8.037469,-1
1293,1294,1580729644516,3.6864998,0.1328,-1.3619999999999999,2.674601,0.71103,8.647492,-1
1294,1295,1580729644526,3.0024,-0.23869999,-0.3277,2.0127382,0.32763213,9.816035000000001,-1
1295,1296,1580729644536,2.2768,-0.40449998,0.696,1.2692143,0.18178694,10.626309,-1
1296,1297,1580729644547,1.7169,-0.4416,0.8969,1.0144999,0.19127756,10.643117,-1
1297,1298,1580729644557,1.7734,-0.37539998,0.48099998,1.2275934,0.18282124,9.891597,-1
1298,1299,1580729644567,1.9382,-0.5617,-0.5818,1.4989139,0.032915484,8.808843,-1
1299,1300,1580729644578,2.3487,-0.6109,-1.2013,2.3403417999999996,0.051274225,8.760019999999999,-1
1300,1301,1580729644588,3.1585999,-0.5114,-0.8314,3.126157,0.23246741,9.174725,-1
1301,1302,1580729644598,3.823,-0.3558,-0.4908,3.6163266000000003,0.3475136,9.350776,-1
1302,1303,1580729644609,4.1322,-0.1463,-0.38529998,3.821299,0.5948059,9.458199,-1
1303,1304,1580729644619,4.0783,0.0188,-0.3187,3.6304622,0.69364816,9.489111999999999,-1
1304,1305,1580729644629,3.7954998,0.1083,-0.242,3.2921135,0.7255100999999999,9.719616,-1
1305,1306,1580729644639,3.3778,0.1114,0.0504,2.9268923,0.57802737,9.950014999999999,-1
1306,1307,1580729644650,2.949,-0.13319999,0.16659999,2.5016152999999997,0.32300654,9.969944,-1
1307,1308,1580729644660,2.5311,-0.35459998,0.185,2.3216189999999997,0.09969456,10.061977,-1
1308,1309,1580729644670,2.3881,-0.583,0.322,2.1752088,-0.05224148,10.197623,-1
1309,1310,1580729644680,2.2202,-0.6207,0.4005,2.1327262000000005,0.002384625,10.184042999999999,-1
1310,1311,1580729644690,2.1502,-0.5905,0.41059998,2.1773062000000003,0.08550173,10.236333,-1
1311,1312,1580729644701,2.2091,-0.4314,0.4601,2.30214,0.30985758,10.206357,-1
1312,1313,1580729644711,2.3172998,-0.1925,0.3527,2.3673580000000003,0.6638259,9.944058,-1
1313,1314,1580729644721,2.3276,0.077,0.1078,2.2592838,0.72133464,9.909562,-1
1314,1315,1580729644731,2.0973,0.015,0.1767,1.9082936999999998,0.5036634,10.070922,-1
1315,1316,1580729644741,1.6401999,-0.21419999,0.2947,1.3680277,0.3557305,9.903233,-1
1316,1317,1580729644751,1.2731999,-0.2938,0.0503,1.4639586000000002,0.3313288,9.587111,-1
